blocks.thisRepN,blocks.thisTrialN,blocks.thisN,blocks.thisIndex,empty_placeholder.started,word,colour,target,nback_response,nback_RT,block_kind,duration,text_nr,block_nr,trial_nr,question,chosen_ans,ans_correct,participant,age,handedness,gender,testing_mode,date,expName,psychopyVersion,frameRate,
0,0,0,0,13.865323128993623,Auf,#88BA3F,None,None,None,None,0.6116571250022389,reading_bl_training_text,Reading_Baseline_training,1,,,,,,r,w,no,2023-03-24_10h29.58.663,EXNAT-2,2022.2.5,376.08846107097224,
0,0,0,0,,dem,#2AB7EF,None,None,None,None,0.2023610420001205,reading_bl_training_text,Reading_Baseline_training,2,,,,,,r,w,no,2023-03-24_10h29.58.663,EXNAT-2,2022.2.5,376.08846107097224,
0,0,0,0,,großen,#2AB7EF,None,None,None,None,0.25675400700129103,reading_bl_training_text,Reading_Baseline_training,3,,,,,,r,w,no,2023-03-24_10h29.58.663,EXNAT-2,2022.2.5,376.08846107097224,
0,0,0,0,,"Passagierdampfer,",#D292F3,None,None,None,None,0.21479412700864486,reading_bl_training_text,Reading_Baseline_training,4,,,,,,r,w,no,2023-03-24_10h29.58.663,EXNAT-2,2022.2.5,376.08846107097224,
0,0,0,0,,der,#88BA3F,None,None,None,None,0.18257018299482297,reading_bl_training_text,Reading_Baseline_training,5,,,,,,r,w,no,2023-03-24_10h29.58.663,EXNAT-2,2022.2.5,376.08846107097224,
0,0,0,0,,um,#F989A2,None,None,None,None,0.3167880620021606,reading_bl_training_text,Reading_Baseline_training,6,,,,,,r,w,no,2023-03-24_10h29.58.663,EXNAT-2,2022.2.5,376.08846107097224,
0,0,0,0,,Mitternacht,#2AB7EF,None,None,None,None,0.252278132000356,reading_bl_training_text,Reading_Baseline_training,7,,,,,,r,w,no,2023-03-24_10h29.58.663,EXNAT-2,2022.2.5,376.08846107097224,
0,0,0,0,,von,#F989A2,None,None,None,None,0.23264415499579627,reading_bl_training_text,Reading_Baseline_training,8,,,,,,r,w,no,2023-03-24_10h29.58.663,EXNAT-2,2022.2.5,376.08846107097224,
0,0,0,0,,New,#88BA3F,None,None,None,None,0.2221613440051442,reading_bl_training_text,Reading_Baseline_training,9,,,,,,r,w,no,2023-03-24_10h29.58.663,EXNAT-2,2022.2.5,376.08846107097224,
0,0,0,0,,York,#F989A2,None,None,None,None,0.24278202999266796,reading_bl_training_text,Reading_Baseline_training,10,,,,,,r,w,no,2023-03-24_10h29.58.663,EXNAT-2,2022.2.5,376.08846107097224,
0,0,0,0,,nach,#D292F3,None,None,None,None,0.26494688499951735,reading_bl_training_text,Reading_Baseline_training,11,,,,,,r,w,no,2023-03-24_10h29.58.663,EXNAT-2,2022.2.5,376.08846107097224,
0,0,0,0,,Buenos,#D292F3,None,None,None,None,0.24729807300900575,reading_bl_training_text,Reading_Baseline_training,12,,,,,,r,w,no,2023-03-24_10h29.58.663,EXNAT-2,2022.2.5,376.08846107097224,
0,0,0,0,,Aires,#D292F3,None,None,None,None,0.246410242994898,reading_bl_training_text,Reading_Baseline_training,13,,,,,,r,w,no,2023-03-24_10h29.58.663,EXNAT-2,2022.2.5,376.08846107097224,
0,0,0,0,,abgehen,#D292F3,None,None,None,None,0.2624095970095368,reading_bl_training_text,Reading_Baseline_training,14,,,,,,r,w,no,2023-03-24_10h29.58.663,EXNAT-2,2022.2.5,376.08846107097224,
0,0,0,0,,"sollte,",#2AB7EF,None,None,None,None,0.25426693000190426,reading_bl_training_text,Reading_Baseline_training,15,,,,,,r,w,no,2023-03-24_10h29.58.663,EXNAT-2,2022.2.5,376.08846107097224,
0,0,0,0,,herrschte,#2AB7EF,None,None,None,None,0.24855361200752668,reading_bl_training_text,Reading_Baseline_training,16,,,,,,r,w,no,2023-03-24_10h29.58.663,EXNAT-2,2022.2.5,376.08846107097224,
0,0,0,0,,die,#F989A2,None,None,None,None,0.26936168799875304,reading_bl_training_text,Reading_Baseline_training,17,,,,,,r,w,no,2023-03-24_10h29.58.663,EXNAT-2,2022.2.5,376.08846107097224,
0,0,0,0,,übliche,#2AB7EF,None,None,None,None,0.23259247100213543,reading_bl_training_text,Reading_Baseline_training,18,,,,,,r,w,no,2023-03-24_10h29.58.663,EXNAT-2,2022.2.5,376.08846107097224,
0,0,0,0,,Geschäftigkeit,#88BA3F,None,None,None,None,0.24481585600005928,reading_bl_training_text,Reading_Baseline_training,19,,,,,,r,w,no,2023-03-24_10h29.58.663,EXNAT-2,2022.2.5,376.08846107097224,
0,0,0,0,,und,#88BA3F,None,None,None,None,0.26841377800155897,reading_bl_training_text,Reading_Baseline_training,20,,,,,,r,w,no,2023-03-24_10h29.58.663,EXNAT-2,2022.2.5,376.08846107097224,
0,0,0,0,,Bewegung,#D292F3,None,None,None,None,0.2793695709988242,reading_bl_training_text,Reading_Baseline_training,21,,,,,,r,w,no,2023-03-24_10h29.58.663,EXNAT-2,2022.2.5,376.08846107097224,
0,0,0,0,,der,#F989A2,None,None,None,None,0.2508991509967018,reading_bl_training_text,Reading_Baseline_training,22,,,,,,r,w,no,2023-03-24_10h29.58.663,EXNAT-2,2022.2.5,376.08846107097224,
0,0,0,0,,letzten,#88BA3F,None,None,None,None,0.26550526000210084,reading_bl_training_text,Reading_Baseline_training,23,,,,,,r,w,no,2023-03-24_10h29.58.663,EXNAT-2,2022.2.5,376.08846107097224,
0,0,0,0,,Stunde.,#F989A2,None,None,None,None,0.26606061701022554,reading_bl_training_text,Reading_Baseline_training,24,,,,,,r,w,no,2023-03-24_10h29.58.663,EXNAT-2,2022.2.5,376.08846107097224,
0,0,0,0,,Gäste,#D292F3,None,None,None,None,0.27993792099005077,reading_bl_training_text,Reading_Baseline_training,25,,,,,,r,w,no,2023-03-24_10h29.58.663,EXNAT-2,2022.2.5,376.08846107097224,
0,0,0,0,,vom,#F989A2,None,None,None,None,0.263246855000034,reading_bl_training_text,Reading_Baseline_training,26,,,,,,r,w,no,2023-03-24_10h29.58.663,EXNAT-2,2022.2.5,376.08846107097224,
0,0,0,0,,Land,#D292F3,None,None,None,None,0.22242733799794223,reading_bl_training_text,Reading_Baseline_training,27,,,,,,r,w,no,2023-03-24_10h29.58.663,EXNAT-2,2022.2.5,376.08846107097224,
0,0,0,0,,drängten,#2AB7EF,None,None,None,None,0.251302038988797,reading_bl_training_text,Reading_Baseline_training,28,,,,,,r,w,no,2023-03-24_10h29.58.663,EXNAT-2,2022.2.5,376.08846107097224,
0,0,0,0,,"durcheinander,",#F989A2,None,None,None,None,0.27196207699307706,reading_bl_training_text,Reading_Baseline_training,29,,,,,,r,w,no,2023-03-24_10h29.58.663,EXNAT-2,2022.2.5,376.08846107097224,
0,0,0,0,,um,#88BA3F,None,None,None,None,0.28526247398986015,reading_bl_training_text,Reading_Baseline_training,30,,,,,,r,w,no,2023-03-24_10h29.58.663,EXNAT-2,2022.2.5,376.08846107097224,
0,0,0,0,,ihren,#88BA3F,None,None,None,None,0.2492028010019567,reading_bl_training_text,Reading_Baseline_training,31,,,,,,r,w,no,2023-03-24_10h29.58.663,EXNAT-2,2022.2.5,376.08846107097224,
0,0,0,0,,Freunden,#2AB7EF,None,None,None,None,0.263113118999172,reading_bl_training_text,Reading_Baseline_training,32,,,,,,r,w,no,2023-03-24_10h29.58.663,EXNAT-2,2022.2.5,376.08846107097224,
0,0,0,0,,das,#2AB7EF,None,None,None,None,0.2802722820051713,reading_bl_training_text,Reading_Baseline_training,33,,,,,,r,w,no,2023-03-24_10h29.58.663,EXNAT-2,2022.2.5,376.08846107097224,
0,0,0,0,,Geleit,#F989A2,None,None,None,None,0.25550755400035996,reading_bl_training_text,Reading_Baseline_training,34,,,,,,r,w,no,2023-03-24_10h29.58.663,EXNAT-2,2022.2.5,376.08846107097224,
0,0,0,0,,zu,#88BA3F,None,None,None,None,0.28697203000774607,reading_bl_training_text,Reading_Baseline_training,35,,,,,,r,w,no,2023-03-24_10h29.58.663,EXNAT-2,2022.2.5,376.08846107097224,
0,0,0,0,,"geben,",#D292F3,None,None,None,None,0.2327723140042508,reading_bl_training_text,Reading_Baseline_training,36,,,,,,r,w,no,2023-03-24_10h29.58.663,EXNAT-2,2022.2.5,376.08846107097224,
0,0,0,0,,Telegraphenboys,#F989A2,None,None,None,None,0.25450216900208034,reading_bl_training_text,Reading_Baseline_training,37,,,,,,r,w,no,2023-03-24_10h29.58.663,EXNAT-2,2022.2.5,376.08846107097224,
0,0,0,0,,mit,#2AB7EF,None,None,None,None,1.0116865869931644,reading_bl_training_text,Reading_Baseline_training,38,,,,,,r,w,no,2023-03-24_10h29.58.663,EXNAT-2,2022.2.5,376.08846107097224,
0,0,0,0,,schiefen,#88BA3F,None,None,None,None,0.29620540799805894,reading_bl_training_text,Reading_Baseline_training,39,,,,,,r,w,no,2023-03-24_10h29.58.663,EXNAT-2,2022.2.5,376.08846107097224,
0,0,0,0,,Mützen,#F989A2,None,None,None,None,0.280972685010056,reading_bl_training_text,Reading_Baseline_training,40,,,,,,r,w,no,2023-03-24_10h29.58.663,EXNAT-2,2022.2.5,376.08846107097224,
0,0,0,0,,schossen,#88BA3F,None,None,None,None,0.27449696901021525,reading_bl_training_text,Reading_Baseline_training,41,,,,,,r,w,no,2023-03-24_10h29.58.663,EXNAT-2,2022.2.5,376.08846107097224,
0,0,0,0,,Namen,#F989A2,None,None,None,None,0.28429403201153036,reading_bl_training_text,Reading_Baseline_training,42,,,,,,r,w,no,2023-03-24_10h29.58.663,EXNAT-2,2022.2.5,376.08846107097224,
0,0,0,0,,ausrufend,#D292F3,None,None,None,None,0.2869763789931312,reading_bl_training_text,Reading_Baseline_training,43,,,,,,r,w,no,2023-03-24_10h29.58.663,EXNAT-2,2022.2.5,376.08846107097224,
0,0,0,0,,durch,#D292F3,None,None,None,None,0.2830832729960093,reading_bl_training_text,Reading_Baseline_training,44,,,,,,r,w,no,2023-03-24_10h29.58.663,EXNAT-2,2022.2.5,376.08846107097224,
0,0,0,0,,die,#88BA3F,None,None,None,None,0.29753242700826377,reading_bl_training_text,Reading_Baseline_training,45,,,,,,r,w,no,2023-03-24_10h29.58.663,EXNAT-2,2022.2.5,376.08846107097224,
0,0,0,0,,"Gesellschaftsräume,",#2AB7EF,None,None,None,None,0.3549087919964222,reading_bl_training_text,Reading_Baseline_training,46,,,,,,r,w,no,2023-03-24_10h29.58.663,EXNAT-2,2022.2.5,376.08846107097224,
0,0,0,0,,Koffer,#D292F3,None,None,None,None,0.3250618729944108,reading_bl_training_text,Reading_Baseline_training,47,,,,,,r,w,no,2023-03-24_10h29.58.663,EXNAT-2,2022.2.5,376.08846107097224,
0,0,0,0,,und,#2AB7EF,None,None,None,None,0.26328673800162505,reading_bl_training_text,Reading_Baseline_training,48,,,,,,r,w,no,2023-03-24_10h29.58.663,EXNAT-2,2022.2.5,376.08846107097224,
0,0,0,0,,Blumen,#F989A2,None,None,None,None,0.2980243070051074,reading_bl_training_text,Reading_Baseline_training,49,,,,,,r,w,no,2023-03-24_10h29.58.663,EXNAT-2,2022.2.5,376.08846107097224,
0,0,0,0,,wurden,#D292F3,None,None,None,None,0.2873573240067344,reading_bl_training_text,Reading_Baseline_training,50,,,,,,r,w,no,2023-03-24_10h29.58.663,EXNAT-2,2022.2.5,376.08846107097224,
0,0,0,0,,"geschleppt,",#2AB7EF,None,None,None,None,0.25019254098879173,reading_bl_training_text,Reading_Baseline_training,51,,,,,,r,w,no,2023-03-24_10h29.58.663,EXNAT-2,2022.2.5,376.08846107097224,
0,0,0,0,,Kinder,#D292F3,None,None,None,None,0.2744007489964133,reading_bl_training_text,Reading_Baseline_training,52,,,,,,r,w,no,2023-03-24_10h29.58.663,EXNAT-2,2022.2.5,376.08846107097224,
0,0,0,0,,liefen,#F989A2,None,None,None,None,0.3211145090026548,reading_bl_training_text,Reading_Baseline_training,53,,,,,,r,w,no,2023-03-24_10h29.58.663,EXNAT-2,2022.2.5,376.08846107097224,
0,0,0,0,,neugierig,#88BA3F,None,None,None,None,0.2986434259946691,reading_bl_training_text,Reading_Baseline_training,54,,,,,,r,w,no,2023-03-24_10h29.58.663,EXNAT-2,2022.2.5,376.08846107097224,
0,0,0,0,,treppauf,#F989A2,None,None,None,None,0.26067619799869135,reading_bl_training_text,Reading_Baseline_training,55,,,,,,r,w,no,2023-03-24_10h29.58.663,EXNAT-2,2022.2.5,376.08846107097224,
0,0,0,0,,und,#F989A2,None,None,None,None,0.3038699770113453,reading_bl_training_text,Reading_Baseline_training,56,,,,,,r,w,no,2023-03-24_10h29.58.663,EXNAT-2,2022.2.5,376.08846107097224,
0,0,0,0,,"treppab,",#D292F3,None,None,None,None,0.27261553300195374,reading_bl_training_text,Reading_Baseline_training,57,,,,,,r,w,no,2023-03-24_10h29.58.663,EXNAT-2,2022.2.5,376.08846107097224,
0,0,0,0,,während,#2AB7EF,None,None,None,None,0.2950668800040148,reading_bl_training_text,Reading_Baseline_training,58,,,,,,r,w,no,2023-03-24_10h29.58.663,EXNAT-2,2022.2.5,376.08846107097224,
0,0,0,0,,das,#88BA3F,None,None,None,None,0.2928860639949562,reading_bl_training_text,Reading_Baseline_training,59,,,,,,r,w,no,2023-03-24_10h29.58.663,EXNAT-2,2022.2.5,376.08846107097224,
0,0,0,0,,Orchester,#88BA3F,None,None,None,None,0.28367027899366803,reading_bl_training_text,Reading_Baseline_training,60,,,,,,r,w,no,2023-03-24_10h29.58.663,EXNAT-2,2022.2.5,376.08846107097224,
0,0,0,0,,unerschütterlich,#F989A2,None,None,None,None,0.28257702800328843,reading_bl_training_text,Reading_Baseline_training,61,,,,,,r,w,no,2023-03-24_10h29.58.663,EXNAT-2,2022.2.5,376.08846107097224,
0,0,0,0,,zur,#D292F3,None,None,None,None,0.2690130910050357,reading_bl_training_text,Reading_Baseline_training,62,,,,,,r,w,no,2023-03-24_10h29.58.663,EXNAT-2,2022.2.5,376.08846107097224,
0,0,0,0,,Deckshow,#F989A2,None,None,None,None,0.2831592169968644,reading_bl_training_text,Reading_Baseline_training,63,,,,,,r,w,no,2023-03-24_10h29.58.663,EXNAT-2,2022.2.5,376.08846107097224,
0,0,0,0,,spielte.,#2AB7EF,None,None,None,None,0.2808582259895047,reading_bl_training_text,Reading_Baseline_training,64,,,,,,r,w,no,2023-03-24_10h29.58.663,EXNAT-2,2022.2.5,376.08846107097224,
0,0,0,0,,Ich,#88BA3F,None,None,None,None,0.30317591001221444,reading_bl_training_text,Reading_Baseline_training,65,,,,,,r,w,no,2023-03-24_10h29.58.663,EXNAT-2,2022.2.5,376.08846107097224,
0,0,0,0,,stand,#2AB7EF,None,None,None,None,0.2761585689877393,reading_bl_training_text,Reading_Baseline_training,66,,,,,,r,w,no,2023-03-24_10h29.58.663,EXNAT-2,2022.2.5,376.08846107097224,
0,0,0,0,,im,#D292F3,None,None,None,None,0.2614155940100318,reading_bl_training_text,Reading_Baseline_training,67,,,,,,r,w,no,2023-03-24_10h29.58.663,EXNAT-2,2022.2.5,376.08846107097224,
0,0,0,0,,Gespräch,#88BA3F,None,None,None,None,0.3122006180055905,reading_bl_training_text,Reading_Baseline_training,68,,,,,,r,w,no,2023-03-24_10h29.58.663,EXNAT-2,2022.2.5,376.08846107097224,
0,0,0,0,,mit,#88BA3F,None,None,None,None,0.26017313900229055,reading_bl_training_text,Reading_Baseline_training,69,,,,,,r,w,no,2023-03-24_10h29.58.663,EXNAT-2,2022.2.5,376.08846107097224,
0,0,0,0,,einem,#F989A2,None,None,None,None,0.27266197999415454,reading_bl_training_text,Reading_Baseline_training,70,,,,,,r,w,no,2023-03-24_10h29.58.663,EXNAT-2,2022.2.5,376.08846107097224,
0,0,0,0,,Bekannten,#2AB7EF,None,None,None,None,0.2618477409996558,reading_bl_training_text,Reading_Baseline_training,71,,,,,,r,w,no,2023-03-24_10h29.58.663,EXNAT-2,2022.2.5,376.08846107097224,
0,0,0,0,,etwas,#D292F3,None,None,None,None,0.280806914990535,reading_bl_training_text,Reading_Baseline_training,72,,,,,,r,w,no,2023-03-24_10h29.58.663,EXNAT-2,2022.2.5,376.08846107097224,
0,0,0,0,,abseits,#F989A2,None,None,None,None,0.3168376109970268,reading_bl_training_text,Reading_Baseline_training,73,,,,,,r,w,no,2023-03-24_10h29.58.663,EXNAT-2,2022.2.5,376.08846107097224,
0,0,0,0,,von,#D292F3,None,None,None,None,0.26355589101149235,reading_bl_training_text,Reading_Baseline_training,74,,,,,,r,w,no,2023-03-24_10h29.58.663,EXNAT-2,2022.2.5,376.08846107097224,
0,0,0,0,,diesem,#2AB7EF,None,None,None,None,0.25159427399921697,reading_bl_training_text,Reading_Baseline_training,75,,,,,,r,w,no,2023-03-24_10h29.58.663,EXNAT-2,2022.2.5,376.08846107097224,
0,0,0,0,,Getümmel,#F989A2,None,None,None,None,0.282496533007361,reading_bl_training_text,Reading_Baseline_training,76,,,,,,r,w,no,2023-03-24_10h29.58.663,EXNAT-2,2022.2.5,376.08846107097224,
0,0,0,0,,auf,#88BA3F,None,None,None,None,0.27336220900178887,reading_bl_training_text,Reading_Baseline_training,77,,,,,,r,w,no,2023-03-24_10h29.58.663,EXNAT-2,2022.2.5,376.08846107097224,
0,0,0,0,,dem,#2AB7EF,None,None,None,None,0.27288951400259975,reading_bl_training_text,Reading_Baseline_training,78,,,,,,r,w,no,2023-03-24_10h29.58.663,EXNAT-2,2022.2.5,376.08846107097224,
0,0,0,0,,"Promenadendeck,",#D292F3,None,None,None,None,0.2661263420013711,reading_bl_training_text,Reading_Baseline_training,79,,,,,,r,w,no,2023-03-24_10h29.58.663,EXNAT-2,2022.2.5,376.08846107097224,
0,0,0,0,,als,#D292F3,None,None,None,None,0.28649478300940245,reading_bl_training_text,Reading_Baseline_training,80,,,,,,r,w,no,2023-03-24_10h29.58.663,EXNAT-2,2022.2.5,376.08846107097224,
0,0,0,0,,neben,#88BA3F,None,None,None,None,0.2943128560000332,reading_bl_training_text,Reading_Baseline_training,81,,,,,,r,w,no,2023-03-24_10h29.58.663,EXNAT-2,2022.2.5,376.08846107097224,
0,0,0,0,,uns,#F989A2,None,None,None,None,0.26477714099746663,reading_bl_training_text,Reading_Baseline_training,82,,,,,,r,w,no,2023-03-24_10h29.58.663,EXNAT-2,2022.2.5,376.08846107097224,
0,0,0,0,,zwei-,#88BA3F,None,None,None,None,0.26540980899881106,reading_bl_training_text,Reading_Baseline_training,83,,,,,,r,w,no,2023-03-24_10h29.58.663,EXNAT-2,2022.2.5,376.08846107097224,
0,0,0,0,,oder,#2AB7EF,None,None,None,None,0.29917087899229955,reading_bl_training_text,Reading_Baseline_training,84,,,,,,r,w,no,2023-03-24_10h29.58.663,EXNAT-2,2022.2.5,376.08846107097224,
0,0,0,0,,dreimal,#F989A2,None,None,None,None,0.2893198050005594,reading_bl_training_text,Reading_Baseline_training,85,,,,,,r,w,no,2023-03-24_10h29.58.663,EXNAT-2,2022.2.5,376.08846107097224,
0,0,0,0,,Blitzlicht,#F989A2,None,None,None,None,0.2828940369945485,reading_bl_training_text,Reading_Baseline_training,86,,,,,,r,w,no,2023-03-24_10h29.58.663,EXNAT-2,2022.2.5,376.08846107097224,
0,0,0,0,,scharf,#D292F3,None,None,None,None,0.27808363900112454,reading_bl_training_text,Reading_Baseline_training,87,,,,,,r,w,no,2023-03-24_10h29.58.663,EXNAT-2,2022.2.5,376.08846107097224,
0,0,0,0,,aufsprühte,#2AB7EF,None,None,None,None,0.2663594650075538,reading_bl_training_text,Reading_Baseline_training,88,,,,,,r,w,no,2023-03-24_10h29.58.663,EXNAT-2,2022.2.5,376.08846107097224,
0,0,0,0,,-,#D292F3,None,None,None,None,0.2812381679977989,reading_bl_training_text,Reading_Baseline_training,89,,,,,,r,w,no,2023-03-24_10h29.58.663,EXNAT-2,2022.2.5,376.08846107097224,
0,0,0,0,,anscheinend,#88BA3F,None,None,None,None,0.36886299899197184,reading_bl_training_text,Reading_Baseline_training,90,,,,,,r,w,no,2023-03-24_10h29.58.663,EXNAT-2,2022.2.5,376.08846107097224,
0,0,0,0,,war,#2AB7EF,None,None,None,None,0.26905519599677064,reading_bl_training_text,Reading_Baseline_training,91,,,,,,r,w,no,2023-03-24_10h29.58.663,EXNAT-2,2022.2.5,376.08846107097224,
0,0,0,0,,irgendein,#D292F3,None,None,None,None,0.6759570819995133,reading_bl_training_text,Reading_Baseline_training,92,,,,,,r,w,no,2023-03-24_10h29.58.663,EXNAT-2,2022.2.5,376.08846107097224,
0,0,0,0,,Prominenter,#F989A2,None,None,None,None,0.21429511401220225,reading_bl_training_text,Reading_Baseline_training,93,,,,,,r,w,no,2023-03-24_10h29.58.663,EXNAT-2,2022.2.5,376.08846107097224,
0,0,0,0,,knapp,#88BA3F,None,None,None,None,0.20144558399624657,reading_bl_training_text,Reading_Baseline_training,94,,,,,,r,w,no,2023-03-24_10h29.58.663,EXNAT-2,2022.2.5,376.08846107097224,
0,0,0,0,,vor,#88BA3F,None,None,None,None,0.14316801000677515,reading_bl_training_text,Reading_Baseline_training,95,,,,,,r,w,no,2023-03-24_10h29.58.663,EXNAT-2,2022.2.5,376.08846107097224,
0,0,0,0,,der,#2AB7EF,None,None,None,None,0.19056494999676943,reading_bl_training_text,Reading_Baseline_training,96,,,,,,r,w,no,2023-03-24_10h29.58.663,EXNAT-2,2022.2.5,376.08846107097224,
0,0,0,0,,Abfahrt,#F989A2,None,None,None,None,0.18111950300226454,reading_bl_training_text,Reading_Baseline_training,97,,,,,,r,w,no,2023-03-24_10h29.58.663,EXNAT-2,2022.2.5,376.08846107097224,
0,0,0,0,,noch,#2AB7EF,None,None,None,None,0.16636584300431423,reading_bl_training_text,Reading_Baseline_training,98,,,,,,r,w,no,2023-03-24_10h29.58.663,EXNAT-2,2022.2.5,376.08846107097224,
0,0,0,0,,rasch,#D292F3,None,None,None,None,0.18888532799610402,reading_bl_training_text,Reading_Baseline_training,99,,,,,,r,w,no,2023-03-24_10h29.58.663,EXNAT-2,2022.2.5,376.08846107097224,
0,0,0,0,,von,#88BA3F,None,None,None,None,0.15167150100751314,reading_bl_training_text,Reading_Baseline_training,100,,,,,,r,w,no,2023-03-24_10h29.58.663,EXNAT-2,2022.2.5,376.08846107097224,
0,0,0,0,,Reportern,#88BA3F,None,None,None,None,0.17525580700021237,reading_bl_training_text,Reading_Baseline_training,101,,,,,,r,w,no,2023-03-24_10h29.58.663,EXNAT-2,2022.2.5,376.08846107097224,
0,0,0,0,,interviewt,#F989A2,None,None,None,None,0.17131572800280992,reading_bl_training_text,Reading_Baseline_training,102,,,,,,r,w,no,2023-03-24_10h29.58.663,EXNAT-2,2022.2.5,376.08846107097224,
0,0,0,0,,und,#88BA3F,None,None,None,None,0.15613124999799766,reading_bl_training_text,Reading_Baseline_training,103,,,,,,r,w,no,2023-03-24_10h29.58.663,EXNAT-2,2022.2.5,376.08846107097224,
0,0,0,0,,photographiert,#D292F3,None,None,None,None,0.17126519299927168,reading_bl_training_text,Reading_Baseline_training,104,,,,,,r,w,no,2023-03-24_10h29.58.663,EXNAT-2,2022.2.5,376.08846107097224,
0,0,0,0,,worden.,#D292F3,None,None,None,None,0.21439855999778956,reading_bl_training_text,Reading_Baseline_training,105,,,,,,r,w,no,2023-03-24_10h29.58.663,EXNAT-2,2022.2.5,376.08846107097224,
0,0,0,0,,Mein,#2AB7EF,None,None,None,None,0.16819462999410462,reading_bl_training_text,Reading_Baseline_training,106,,,,,,r,w,no,2023-03-24_10h29.58.663,EXNAT-2,2022.2.5,376.08846107097224,
0,0,0,0,,Freund,#F989A2,None,None,None,None,0.14261210900440346,reading_bl_training_text,Reading_Baseline_training,107,,,,,,r,w,no,2023-03-24_10h29.58.663,EXNAT-2,2022.2.5,376.08846107097224,
0,0,0,0,,blickte,#2AB7EF,None,None,None,None,0.18963275900750887,reading_bl_training_text,Reading_Baseline_training,108,,,,,,r,w,no,2023-03-24_10h29.58.663,EXNAT-2,2022.2.5,376.08846107097224,
0,0,0,0,,hin,#88BA3F,None,None,None,None,0.16853342299873475,reading_bl_training_text,Reading_Baseline_training,109,,,,,,r,w,no,2023-03-24_10h29.58.663,EXNAT-2,2022.2.5,376.08846107097224,
0,0,0,0,,und,#88BA3F,None,None,None,None,0.17163636200712062,reading_bl_training_text,Reading_Baseline_training,110,,,,,,r,w,no,2023-03-24_10h29.58.663,EXNAT-2,2022.2.5,376.08846107097224,
0,0,0,0,,lächelte.,#F989A2,None,None,None,None,0.15742513501027133,reading_bl_training_text,Reading_Baseline_training,111,,,,,,r,w,no,2023-03-24_10h29.58.663,EXNAT-2,2022.2.5,376.08846107097224,
0,0,0,0,,"Sie,#F989A2,None,None,None,None,0.18329330399865285,reading_bl_training_text,Reading_Baseline_training,112,,,,,,r,w,no,2023-03-24_10h29.58.663,EXNAT-2,2022.2.5,376.08846107097224,
0,0,0,0,,haben,#F989A2,None,None,None,None,0.18560270399029832,reading_bl_training_text,Reading_Baseline_training,113,,,,,,r,w,no,2023-03-24_10h29.58.663,EXNAT-2,2022.2.5,376.08846107097224,
0,0,0,0,,da,#D292F3,None,None,None,None,0.1500688980013365,reading_bl_training_text,Reading_Baseline_training,114,,,,,,r,w,no,2023-03-24_10h29.58.663,EXNAT-2,2022.2.5,376.08846107097224,
0,0,0,0,,einen,#2AB7EF,None,None,None,None,0.1633855260006385,reading_bl_training_text,Reading_Baseline_training,115,,,,,,r,w,no,2023-03-24_10h29.58.663,EXNAT-2,2022.2.5,376.08846107097224,
0,0,0,0,,raren,#D292F3,None,None,None,None,0.16707631599274464,reading_bl_training_text,Reading_Baseline_training,116,,,,,,r,w,no,2023-03-24_10h29.58.663,EXNAT-2,2022.2.5,376.08846107097224,
0,0,0,0,,Vogel,#2AB7EF,None,None,None,None,0.21280391899927054,reading_bl_training_text,Reading_Baseline_training,117,,,,,,r,w,no,2023-03-24_10h29.58.663,EXNAT-2,2022.2.5,376.08846107097224,
0,0,0,0,,an,#88BA3F,None,None,None,None,0.17386794301273767,reading_bl_training_text,Reading_Baseline_training,118,,,,,,r,w,no,2023-03-24_10h29.58.663,EXNAT-2,2022.2.5,376.08846107097224,
0,0,0,0,,"Bord,",#D292F3,None,None,None,None,0.16685494600096717,reading_bl_training_text,Reading_Baseline_training,119,,,,,,r,w,no,2023-03-24_10h29.58.663,EXNAT-2,2022.2.5,376.08846107097224,
0,0,0,0,,den,#2AB7EF,None,None,None,None,0.17697489500278607,reading_bl_training_text,Reading_Baseline_training,120,,,,,,r,w,no,2023-03-24_10h29.58.663,EXNAT-2,2022.2.5,376.08846107097224,
0,0,0,0,,Czentovic.",#D292F3,None,None,None,None,0.16067456599557772,reading_bl_training_text,Reading_Baseline_training,121,,,,,,r,w,no,2023-03-24_10h29.58.663,EXNAT-2,2022.2.5,376.08846107097224,
0,0,0,0,,Und,#88BA3F,None,None,None,None,0.17603277599846479,reading_bl_training_text,Reading_Baseline_training,122,,,,,,r,w,no,2023-03-24_10h29.58.663,EXNAT-2,2022.2.5,376.08846107097224,
0,0,0,0,,da,#2AB7EF,None,None,None,None,0.17875375199946575,reading_bl_training_text,Reading_Baseline_training,123,,,,,,r,w,no,2023-03-24_10h29.58.663,EXNAT-2,2022.2.5,376.08846107097224,
0,0,0,0,,ich,#2AB7EF,None,None,None,None,0.1712252930010436,reading_bl_training_text,Reading_Baseline_training,124,,,,,,r,w,no,2023-03-24_10h29.58.663,EXNAT-2,2022.2.5,376.08846107097224,
0,0,0,0,,offenbar,#F989A2,None,None,None,None,0.15024977199209388,reading_bl_training_text,Reading_Baseline_training,125,,,,,,r,w,no,2023-03-24_10h29.58.663,EXNAT-2,2022.2.5,376.08846107097224,
0,0,0,0,,ein,#D292F3,None,None,None,None,0.17836287700629327,reading_bl_training_text,Reading_Baseline_training,126,,,,,,r,w,no,2023-03-24_10h29.58.663,EXNAT-2,2022.2.5,376.08846107097224,
0,0,0,0,,ziemlich,#2AB7EF,None,None,None,None,0.17145780600549188,reading_bl_training_text,Reading_Baseline_training,127,,,,,,r,w,no,2023-03-24_10h29.58.663,EXNAT-2,2022.2.5,376.08846107097224,
0,0,0,0,,verständnisloses,#D292F3,None,None,None,None,0.16476373298792168,reading_bl_training_text,Reading_Baseline_training,128,,,,,,r,w,no,2023-03-24_10h29.58.663,EXNAT-2,2022.2.5,376.08846107097224,
0,0,0,0,,Gesicht,#F989A2,None,None,None,None,0.17142873900593258,reading_bl_training_text,Reading_Baseline_training,129,,,,,,r,w,no,2023-03-24_10h29.58.663,EXNAT-2,2022.2.5,376.08846107097224,
0,0,0,0,,zu,#88BA3F,None,None,None,None,0.17811923900444526,reading_bl_training_text,Reading_Baseline_training,130,,,,,,r,w,no,2023-03-24_10h29.58.663,EXNAT-2,2022.2.5,376.08846107097224,
0,0,0,0,,dieser,#F989A2,None,None,None,None,0.15969360299641266,reading_bl_training_text,Reading_Baseline_training,131,,,,,,r,w,no,2023-03-24_10h29.58.663,EXNAT-2,2022.2.5,376.08846107097224,
0,0,0,0,,Mitteilung,#88BA3F,None,None,None,None,0.18218388700915966,reading_bl_training_text,Reading_Baseline_training,132,,,,,,r,w,no,2023-03-24_10h29.58.663,EXNAT-2,2022.2.5,376.08846107097224,
0,0,0,0,,"machte,",#2AB7EF,None,None,None,None,0.17697968499851413,reading_bl_training_text,Reading_Baseline_training,133,,,,,,r,w,no,2023-03-24_10h29.58.663,EXNAT-2,2022.2.5,376.08846107097224,
0,0,0,0,,fügte,#88BA3F,None,None,None,None,0.155315009993501,reading_bl_training_text,Reading_Baseline_training,134,,,,,,r,w,no,2023-03-24_10h29.58.663,EXNAT-2,2022.2.5,376.08846107097224,
0,0,0,0,,er,#88BA3F,None,None,None,None,0.15379945099994075,reading_bl_training_text,Reading_Baseline_training,135,,,,,,r,w,no,2023-03-24_10h29.58.663,EXNAT-2,2022.2.5,376.08846107097224,
0,0,0,0,,erklärend,#D292F3,None,None,None,None,0.184483552002348,reading_bl_training_text,Reading_Baseline_training,136,,,,,,r,w,no,2023-03-24_10h29.58.663,EXNAT-2,2022.2.5,376.08846107097224,
0,0,0,0,,bei:,#F989A2,None,None,None,None,0.17046444800507743,reading_bl_training_text,Reading_Baseline_training,137,,,,,,r,w,no,2023-03-24_10h29.58.663,EXNAT-2,2022.2.5,376.08846107097224,
0,0,0,0,,"Mirko,#F989A2,None,None,None,None,0.18239080099738203,reading_bl_training_text,Reading_Baseline_training,138,,,,,,r,w,no,2023-03-24_10h29.58.663,EXNAT-2,2022.2.5,376.08846107097224,
0,0,0,0,,"Czentovic,",#88BA3F,None,None,None,None,0.17376659499132074,reading_bl_training_text,Reading_Baseline_training,139,,,,,,r,w,no,2023-03-24_10h29.58.663,EXNAT-2,2022.2.5,376.08846107097224,
0,0,0,0,,der,#F989A2,None,None,None,None,0.16356056499353144,reading_bl_training_text,Reading_Baseline_training,140,,,,,,r,w,no,2023-03-24_10h29.58.663,EXNAT-2,2022.2.5,376.08846107097224,
0,0,0,0,,Weltschachmeister.,#2AB7EF,None,None,None,None,0.16830894601298496,reading_bl_training_text,Reading_Baseline_training,141,,,,,,r,w,no,2023-03-24_10h29.58.663,EXNAT-2,2022.2.5,376.08846107097224,
0,0,0,0,,Er,#2AB7EF,None,None,None,None,0.17281704800552689,reading_bl_training_text,Reading_Baseline_training,142,,,,,,r,w,no,2023-03-24_10h29.58.663,EXNAT-2,2022.2.5,376.08846107097224,
0,0,0,0,,hat,#D292F3,None,None,None,None,0.17494074199930765,reading_bl_training_text,Reading_Baseline_training,143,,,,,,r,w,no,2023-03-24_10h29.58.663,EXNAT-2,2022.2.5,376.08846107097224,
0,0,0,0,,ganz,#D292F3,None,None,None,None,0.18874135600344744,reading_bl_training_text,Reading_Baseline_training,144,,,,,,r,w,no,2023-03-24_10h29.58.663,EXNAT-2,2022.2.5,376.08846107097224,
0,0,0,0,,Amerika,#88BA3F,None,None,None,None,0.16589304798981175,reading_bl_training_text,Reading_Baseline_training,145,,,,,,r,w,no,2023-03-24_10h29.58.663,EXNAT-2,2022.2.5,376.08846107097224,
0,0,0,0,,von,#F989A2,None,None,None,None,0.1588006090023555,reading_bl_training_text,Reading_Baseline_training,146,,,,,,r,w,no,2023-03-24_10h29.58.663,EXNAT-2,2022.2.5,376.08846107097224,
0,0,0,0,,Ost,#D292F3,None,None,None,None,0.17439833100070246,reading_bl_training_text,Reading_Baseline_training,147,,,,,,r,w,no,2023-03-24_10h29.58.663,EXNAT-2,2022.2.5,376.08846107097224,
0,0,0,0,,nach,#2AB7EF,None,None,None,None,0.15243717399425805,reading_bl_training_text,Reading_Baseline_training,148,,,,,,r,w,no,2023-03-24_10h29.58.663,EXNAT-2,2022.2.5,376.08846107097224,
0,0,0,0,,West,#88BA3F,None,None,None,None,0.19904042799316812,reading_bl_training_text,Reading_Baseline_training,149,,,,,,r,w,no,2023-03-24_10h29.58.663,EXNAT-2,2022.2.5,376.08846107097224,
0,0,0,0,,mit,#F989A2,None,None,None,None,0.1823333200009074,reading_bl_training_text,Reading_Baseline_training,150,,,,,,r,w,no,2023-03-24_10h29.58.663,EXNAT-2,2022.2.5,376.08846107097224,
0,0,0,0,,Turnierspielen,#2AB7EF,None,None,None,None,0.18243074299243744,reading_bl_training_text,Reading_Baseline_training,151,,,,,,r,w,no,2023-03-24_10h29.58.663,EXNAT-2,2022.2.5,376.08846107097224,
0,0,0,0,,abgeklappert,#D292F3,None,None,None,None,0.16165526000258978,reading_bl_training_text,Reading_Baseline_training,152,,,,,,r,w,no,2023-03-24_10h29.58.663,EXNAT-2,2022.2.5,376.08846107097224,
0,0,0,0,,und,#88BA3F,None,None,None,None,0.18409998599963728,reading_bl_training_text,Reading_Baseline_training,153,,,,,,r,w,no,2023-03-24_10h29.58.663,EXNAT-2,2022.2.5,376.08846107097224,
0,0,0,0,,fährt,#F989A2,None,None,None,None,0.13598864700179547,reading_bl_training_text,Reading_Baseline_training,154,,,,,,r,w,no,2023-03-24_10h29.58.663,EXNAT-2,2022.2.5,376.08846107097224,
0,0,0,0,,jetzt,#2AB7EF,None,None,None,None,0.21452531599788927,reading_bl_training_text,Reading_Baseline_training,155,,,,,,r,w,no,2023-03-24_10h29.58.663,EXNAT-2,2022.2.5,376.08846107097224,
0,0,0,0,,zu,#D292F3,None,None,None,None,0.1632743749942165,reading_bl_training_text,Reading_Baseline_training,156,,,,,,r,w,no,2023-03-24_10h29.58.663,EXNAT-2,2022.2.5,376.08846107097224,
0,0,0,0,,neuen,#F989A2,None,None,None,None,0.1979463480092818,reading_bl_training_text,Reading_Baseline_training,157,,,,,,r,w,no,2023-03-24_10h29.58.663,EXNAT-2,2022.2.5,376.08846107097224,
0,0,0,0,,Triumphen,#2AB7EF,None,None,None,None,0.16098202001012396,reading_bl_training_text,Reading_Baseline_training,158,,,,,,r,w,no,2023-03-24_10h29.58.663,EXNAT-2,2022.2.5,376.08846107097224,
0,0,0,0,,nach,#88BA3F,None,None,None,None,0.1527270380029222,reading_bl_training_text,Reading_Baseline_training,159,,,,,,r,w,no,2023-03-24_10h29.58.663,EXNAT-2,2022.2.5,376.08846107097224,
0,0,0,0,,Argentinien.",#D292F3,None,None,None,None,0.18286742799682543,reading_bl_training_text,Reading_Baseline_training,160,,,,,,r,w,no,2023-03-24_10h29.58.663,EXNAT-2,2022.2.5,376.08846107097224,
0,0,0,0,,,,,,,None,,reading_bl_training_text,Reading_Baseline_training,,Q1,a,True,,,r,w,no,2023-03-24_10h29.58.663,EXNAT-2,2022.2.5,376.08846107097224,
0,0,0,0,,,,,,,None,,reading_bl_training_text,Reading_Baseline_training,,Q2,None,False,,,r,w,no,2023-03-24_10h29.58.663,EXNAT-2,2022.2.5,376.08846107097224,
0,0,0,0,,,,,,,None,,reading_bl_training_text,Reading_Baseline_training,,Q3,None,False,,,r,w,no,2023-03-24_10h29.58.663,EXNAT-2,2022.2.5,376.08846107097224,
0,0,0,0,,,,,,,,,,,,,,,,,r,w,no,2023-03-24_10h29.58.663,EXNAT-2,2022.2.5,376.08846107097224,
1,0,1,0,,William,#88BA3F,None,None,None,None,0.5291931819956517,text_09,Reading_Baseline_main,1,,,,,,r,w,no,2023-03-24_10h29.58.663,EXNAT-2,2022.2.5,376.08846107097224,
1,0,1,0,,Shakespeare,#D292F3,None,None,None,None,0.16909352100628894,text_09,Reading_Baseline_main,2,,,,,,r,w,no,2023-03-24_10h29.58.663,EXNAT-2,2022.2.5,376.08846107097224,
1,0,1,0,,war,#F989A2,None,None,None,None,0.15089541098859627,text_09,Reading_Baseline_main,3,,,,,,r,w,no,2023-03-24_10h29.58.663,EXNAT-2,2022.2.5,376.08846107097224,
1,0,1,0,,etwa,#F989A2,None,None,None,None,0.16607058599765878,text_09,Reading_Baseline_main,4,,,,,,r,w,no,2023-03-24_10h29.58.663,EXNAT-2,2022.2.5,376.08846107097224,
1,0,1,0,,fünf,#D292F3,None,None,None,None,0.13418916599766817,text_09,Reading_Baseline_main,5,,,,,,r,w,no,2023-03-24_10h29.58.663,EXNAT-2,2022.2.5,376.08846107097224,
1,0,1,0,,Jahre,#2AB7EF,None,None,None,None,0.1456119030044647,text_09,Reading_Baseline_main,6,,,,,,r,w,no,2023-03-24_10h29.58.663,EXNAT-2,2022.2.5,376.08846107097224,
1,0,1,0,,"alt,",#88BA3F,None,None,None,None,0.17060695200052578,text_09,Reading_Baseline_main,7,,,,,,r,w,no,2023-03-24_10h29.58.663,EXNAT-2,2022.2.5,376.08846107097224,
1,0,1,0,,als,#D292F3,None,None,None,None,0.1564934979978716,text_09,Reading_Baseline_main,8,,,,,,r,w,no,2023-03-24_10h29.58.663,EXNAT-2,2022.2.5,376.08846107097224,
1,0,1,0,,gar,#88BA3F,None,None,None,None,0.1350343329977477,text_09,Reading_Baseline_main,9,,,,,,r,w,no,2023-03-24_10h29.58.663,EXNAT-2,2022.2.5,376.08846107097224,
1,0,1,0,,nicht,#F989A2,None,None,None,None,0.17792496900074184,text_09,Reading_Baseline_main,10,,,,,,r,w,no,2023-03-24_10h29.58.663,EXNAT-2,2022.2.5,376.08846107097224,
1,0,1,0,,weit,#2AB7EF,None,None,None,None,0.1545573979965411,text_09,Reading_Baseline_main,11,,,,,,r,w,no,2023-03-24_10h29.58.663,EXNAT-2,2022.2.5,376.08846107097224,
1,0,1,0,,entfernt,#2AB7EF,None,None,None,None,0.13997902200208046,text_09,Reading_Baseline_main,12,,,,,,r,w,no,2023-03-24_10h29.58.663,EXNAT-2,2022.2.5,376.08846107097224,
1,0,1,0,,von,#D292F3,None,None,None,None,0.15710603899788111,text_09,Reading_Baseline_main,13,,,,,,r,w,no,2023-03-24_10h29.58.663,EXNAT-2,2022.2.5,376.08846107097224,
1,0,1,0,,seinem,#88BA3F,None,None,None,None,0.15280543100379873,text_09,Reading_Baseline_main,14,,,,,,r,w,no,2023-03-24_10h29.58.663,EXNAT-2,2022.2.5,376.08846107097224,
1,0,1,0,,Heimatdorf,#F989A2,None,None,None,None,0.14958691599895246,text_09,Reading_Baseline_main,15,,,,,,r,w,no,2023-03-24_10h29.58.663,EXNAT-2,2022.2.5,376.08846107097224,
1,0,1,0,,die,#2AB7EF,None,None,None,None,0.16584631000296213,text_09,Reading_Baseline_main,16,,,,,,r,w,no,2023-03-24_10h29.58.663,EXNAT-2,2022.2.5,376.08846107097224,
1,0,1,0,,nur,#D292F3,None,None,None,None,0.15227511400007643,text_09,Reading_Baseline_main,17,,,,,,r,w,no,2023-03-24_10h29.58.663,EXNAT-2,2022.2.5,376.08846107097224,
1,0,1,0,,zweijährige,#2AB7EF,None,None,None,None,0.1409227709955303,text_09,Reading_Baseline_main,18,,,,,,r,w,no,2023-03-24_10h29.58.663,EXNAT-2,2022.2.5,376.08846107097224,
1,0,1,0,,Jane,#D292F3,None,None,None,None,0.13789497400284745,text_09,Reading_Baseline_main,19,,,,,,r,w,no,2023-03-24_10h29.58.663,EXNAT-2,2022.2.5,376.08846107097224,
1,0,1,0,,Shaxspere,#88BA3F,None,None,None,None,0.20213755400618538,text_09,Reading_Baseline_main,20,,,,,,r,w,no,2023-03-24_10h29.58.663,EXNAT-2,2022.2.5,376.08846107097224,
1,0,1,0,,ums,#88BA3F,None,None,None,None,0.17633218599075917,text_09,Reading_Baseline_main,21,,,,,,r,w,no,2023-03-24_10h29.58.663,EXNAT-2,2022.2.5,376.08846107097224,
1,0,1,0,,Leben,#F989A2,None,None,None,None,0.1606147230049828,text_09,Reading_Baseline_main,22,,,,,,r,w,no,2023-03-24_10h29.58.663,EXNAT-2,2022.2.5,376.08846107097224,
1,0,1,0,,kam.,#F989A2,None,None,None,None,0.15273363700543996,text_09,Reading_Baseline_main,23,,,,,,r,w,no,2023-03-24_10h29.58.663,EXNAT-2,2022.2.5,376.08846107097224,
1,0,1,0,,Das,#2AB7EF,None,None,None,None,0.14556704000278842,text_09,Reading_Baseline_main,24,,,,,,r,w,no,2023-03-24_10h29.58.663,EXNAT-2,2022.2.5,376.08846107097224,
1,0,1,0,,kleine,#2AB7EF,None,None,None,None,0.14929093500541057,text_09,Reading_Baseline_main,25,,,,,,r,w,no,2023-03-24_10h29.58.663,EXNAT-2,2022.2.5,376.08846107097224,
1,0,1,0,,Mädchen,#88BA3F,None,None,None,None,0.12835612100025173,text_09,Reading_Baseline_main,26,,,,,,r,w,no,2023-03-24_10h29.58.663,EXNAT-2,2022.2.5,376.08846107097224,
1,0,1,0,,wollte,#88BA3F,None,None,None,None,0.09307569400698412,text_09,Reading_Baseline_main,27,,,,,,r,w,no,2023-03-24_10h29.58.663,EXNAT-2,2022.2.5,376.08846107097224,
1,0,1,0,,Ringelblumen,#2AB7EF,None,None,None,None,0.1862826029973803,text_09,Reading_Baseline_main,28,,,,,,r,w,no,2023-03-24_10h29.58.663,EXNAT-2,2022.2.5,376.08846107097224,
1,0,1,0,,"pflücken,",#88BA3F,None,None,None,None,0.16766382299829274,text_09,Reading_Baseline_main,29,,,,,,r,w,no,2023-03-24_10h29.58.663,EXNAT-2,2022.2.5,376.08846107097224,
1,0,1,0,,die,#F989A2,None,None,None,None,0.16831300900958013,text_09,Reading_Baseline_main,30,,,,,,r,w,no,2023-03-24_10h29.58.663,EXNAT-2,2022.2.5,376.08846107097224,
1,0,1,0,,am,#D292F3,None,None,None,None,0.14568248600699008,text_09,Reading_Baseline_main,31,,,,,,r,w,no,2023-03-24_10h29.58.663,EXNAT-2,2022.2.5,376.08846107097224,
1,0,1,0,,Ufer,#F989A2,None,None,None,None,0.1648260299989488,text_09,Reading_Baseline_main,32,,,,,,r,w,no,2023-03-24_10h29.58.663,EXNAT-2,2022.2.5,376.08846107097224,
1,0,1,0,,eines,#D292F3,None,None,None,None,0.15498953900532797,text_09,Reading_Baseline_main,33,,,,,,r,w,no,2023-03-24_10h29.58.663,EXNAT-2,2022.2.5,376.08846107097224,
1,0,1,0,,Mühlteichs,#D292F3,None,None,None,None,0.17253782600164413,text_09,Reading_Baseline_main,34,,,,,,r,w,no,2023-03-24_10h29.58.663,EXNAT-2,2022.2.5,376.08846107097224,
1,0,1,0,,wuchsen.,#2AB7EF,None,None,None,None,0.1632978729903698,text_09,Reading_Baseline_main,35,,,,,,r,w,no,2023-03-24_10h29.58.663,EXNAT-2,2022.2.5,376.08846107097224,
1,0,1,0,,Beim,#F989A2,None,None,None,None,0.18270139499509241,text_09,Reading_Baseline_main,36,,,,,,r,w,no,2023-03-24_10h29.58.663,EXNAT-2,2022.2.5,376.08846107097224,
1,0,1,0,,Blumenpflücken,#F989A2,None,None,None,None,0.1585958399955416,text_09,Reading_Baseline_main,37,,,,,,r,w,no,2023-03-24_10h29.58.663,EXNAT-2,2022.2.5,376.08846107097224,
1,0,1,0,,rutschte,#F989A2,None,None,None,None,0.17886833800002933,text_09,Reading_Baseline_main,38,,,,,,r,w,no,2023-03-24_10h29.58.663,EXNAT-2,2022.2.5,376.08846107097224,
1,0,1,0,,Jane,#D292F3,None,None,None,None,0.16586903399729636,text_09,Reading_Baseline_main,39,,,,,,r,w,no,2023-03-24_10h29.58.663,EXNAT-2,2022.2.5,376.08846107097224,
1,0,1,0,,"aus,",#2AB7EF,None,None,None,None,0.15018790199246723,text_09,Reading_Baseline_main,40,,,,,,r,w,no,2023-03-24_10h29.58.663,EXNAT-2,2022.2.5,376.08846107097224,
1,0,1,0,,fiel,#D292F3,None,None,None,None,0.17150950100040063,text_09,Reading_Baseline_main,41,,,,,,r,w,no,2023-03-24_10h29.58.663,EXNAT-2,2022.2.5,376.08846107097224,
1,0,1,0,,ins,#D292F3,None,None,None,None,0.1640279340062989,text_09,Reading_Baseline_main,42,,,,,,r,w,no,2023-03-24_10h29.58.663,EXNAT-2,2022.2.5,376.08846107097224,
1,0,1,0,,Wasser,#2AB7EF,None,None,None,None,0.19338371099729557,text_09,Reading_Baseline_main,43,,,,,,r,w,no,2023-03-24_10h29.58.663,EXNAT-2,2022.2.5,376.08846107097224,
1,0,1,0,,und,#88BA3F,None,None,None,None,0.17633224299061112,text_09,Reading_Baseline_main,44,,,,,,r,w,no,2023-03-24_10h29.58.663,EXNAT-2,2022.2.5,376.08846107097224,
1,0,1,0,,ertrank.,#2AB7EF,None,None,None,None,0.16534286898968276,text_09,Reading_Baseline_main,45,,,,,,r,w,no,2023-03-24_10h29.58.663,EXNAT-2,2022.2.5,376.08846107097224,
1,0,1,0,,William,#F989A2,None,None,None,None,0.1524106379947625,text_09,Reading_Baseline_main,46,,,,,,r,w,no,2023-03-24_10h29.58.663,EXNAT-2,2022.2.5,376.08846107097224,
1,0,1,0,,"Shakespeare,",#F989A2,None,None,None,None,0.1622307509969687,text_09,Reading_Baseline_main,47,,,,,,r,w,no,2023-03-24_10h29.58.663,EXNAT-2,2022.2.5,376.08846107097224,
1,0,1,0,,der,#88BA3F,None,None,None,None,0.15984631900209934,text_09,Reading_Baseline_main,48,,,,,,r,w,no,2023-03-24_10h29.58.663,EXNAT-2,2022.2.5,376.08846107097224,
1,0,1,0,,etwa,#D292F3,None,None,None,None,0.15375809599936474,text_09,Reading_Baseline_main,49,,,,,,r,w,no,2023-03-24_10h29.58.663,EXNAT-2,2022.2.5,376.08846107097224,
1,0,1,0,,20,#2AB7EF,None,None,None,None,0.15246274799574167,text_09,Reading_Baseline_main,50,,,,,,r,w,no,2023-03-24_10h29.58.663,EXNAT-2,2022.2.5,376.08846107097224,
1,0,1,0,,Kilometer,#2AB7EF,None,None,None,None,0.1373157589987386,text_09,Reading_Baseline_main,51,,,,,,r,w,no,2023-03-24_10h29.58.663,EXNAT-2,2022.2.5,376.08846107097224,
1,0,1,0,,entfernt,#D292F3,None,None,None,None,0.1539474579913076,text_09,Reading_Baseline_main,52,,,,,,r,w,no,2023-03-24_10h29.58.663,EXNAT-2,2022.2.5,376.08846107097224,
1,0,1,0,,im,#F989A2,None,None,None,None,0.173297551998985,text_09,Reading_Baseline_main,53,,,,,,r,w,no,2023-03-24_10h29.58.663,EXNAT-2,2022.2.5,376.08846107097224,
1,0,1,0,,Dorf,#F989A2,None,None,None,None,0.152993826995953,text_09,Reading_Baseline_main,54,,,,,,r,w,no,2023-03-24_10h29.58.663,EXNAT-2,2022.2.5,376.08846107097224,
1,0,1,0,,Stratford-upon-Avon,#D292F3,None,None,None,None,0.16121257000486366,text_09,Reading_Baseline_main,55,,,,,,r,w,no,2023-03-24_10h29.58.663,EXNAT-2,2022.2.5,376.08846107097224,
1,0,1,0,,"aufwuchs,",#2AB7EF,None,None,None,None,0.1646018930041464,text_09,Reading_Baseline_main,56,,,,,,r,w,no,2023-03-24_10h29.58.663,EXNAT-2,2022.2.5,376.08846107097224,
1,0,1,0,,sollte,#F989A2,None,None,None,None,0.1747918920009397,text_09,Reading_Baseline_main,57,,,,,,r,w,no,2023-03-24_10h29.58.663,EXNAT-2,2022.2.5,376.08846107097224,
1,0,1,0,,später,#88BA3F,None,None,None,None,0.1625370469992049,text_09,Reading_Baseline_main,58,,,,,,r,w,no,2023-03-24_10h29.58.663,EXNAT-2,2022.2.5,376.08846107097224,
1,0,1,0,,zum,#88BA3F,None,None,None,None,0.1507061479933327,text_09,Reading_Baseline_main,59,,,,,,r,w,no,2023-03-24_10h29.58.663,EXNAT-2,2022.2.5,376.08846107097224,
1,0,1,0,,größten,#88BA3F,None,None,None,None,0.1694876160036074,text_09,Reading_Baseline_main,60,,,,,,r,w,no,2023-03-24_10h29.58.663,EXNAT-2,2022.2.5,376.08846107097224,
1,0,1,0,,Dramatiker,#F989A2,None,None,None,None,0.15720238200447056,text_09,Reading_Baseline_main,61,,,,,,r,w,no,2023-03-24_10h29.58.663,EXNAT-2,2022.2.5,376.08846107097224,
1,0,1,0,,aller,#2AB7EF,None,None,None,None,0.14650776199414395,text_09,Reading_Baseline_main,62,,,,,,r,w,no,2023-03-24_10h29.58.663,EXNAT-2,2022.2.5,376.08846107097224,
1,0,1,0,,Zeiten,#F989A2,None,None,None,None,0.15745604499534238,text_09,Reading_Baseline_main,63,,,,,,r,w,no,2023-03-24_10h29.58.663,EXNAT-2,2022.2.5,376.08846107097224,
1,0,1,0,,heranwachsen.,#D292F3,None,None,None,None,0.1344944190059323,text_09,Reading_Baseline_main,64,,,,,,r,w,no,2023-03-24_10h29.58.663,EXNAT-2,2022.2.5,376.08846107097224,
1,0,1,0,,Forscher,#88BA3F,None,None,None,None,0.19424104399513453,text_09,Reading_Baseline_main,65,,,,,,r,w,no,2023-03-24_10h29.58.663,EXNAT-2,2022.2.5,376.08846107097224,
1,0,1,0,,der,#2AB7EF,None,None,None,None,0.1589403760008281,text_09,Reading_Baseline_main,66,,,,,,r,w,no,2023-03-24_10h29.58.663,EXNAT-2,2022.2.5,376.08846107097224,
1,0,1,0,,Universität,#88BA3F,None,None,None,None,0.1721503940061666,text_09,Reading_Baseline_main,67,,,,,,r,w,no,2023-03-24_10h29.58.663,EXNAT-2,2022.2.5,376.08846107097224,
1,0,1,0,,von,#2AB7EF,None,None,None,None,0.17043485499743838,text_09,Reading_Baseline_main,68,,,,,,r,w,no,2023-03-24_10h29.58.663,EXNAT-2,2022.2.5,376.08846107097224,
1,0,1,0,,Oxford,#88BA3F,None,None,None,None,0.1642425159952836,text_09,Reading_Baseline_main,69,,,,,,r,w,no,2023-03-24_10h29.58.663,EXNAT-2,2022.2.5,376.08846107097224,
1,0,1,0,,vermuten,#F989A2,None,None,None,None,0.15735143299389165,text_09,Reading_Baseline_main,70,,,,,,r,w,no,2023-03-24_10h29.58.663,EXNAT-2,2022.2.5,376.08846107097224,
1,0,1,0,,nun,#D292F3,None,None,None,None,0.16793036099988967,text_09,Reading_Baseline_main,71,,,,,,r,w,no,2023-03-24_10h29.58.663,EXNAT-2,2022.2.5,376.08846107097224,
1,0,1,0,,einen,#D292F3,None,None,None,None,0.15982129800249822,text_09,Reading_Baseline_main,72,,,,,,r,w,no,2023-03-24_10h29.58.663,EXNAT-2,2022.2.5,376.08846107097224,
1,0,1,0,,Zusammenhang,#2AB7EF,None,None,None,None,0.15072791400598362,text_09,Reading_Baseline_main,73,,,,,,r,w,no,2023-03-24_10h29.58.663,EXNAT-2,2022.2.5,376.08846107097224,
1,0,1,0,,dieses,#F989A2,None,None,None,None,0.14397773299424443,text_09,Reading_Baseline_main,74,,,,,,r,w,no,2023-03-24_10h29.58.663,EXNAT-2,2022.2.5,376.08846107097224,
1,0,1,0,,Unfalls,#88BA3F,None,None,None,None,0.20567695300269406,text_09,Reading_Baseline_main,75,,,,,,r,w,no,2023-03-24_10h29.58.663,EXNAT-2,2022.2.5,376.08846107097224,
1,0,1,0,,mit,#F989A2,None,None,None,None,0.173722847001045,text_09,Reading_Baseline_main,76,,,,,,r,w,no,2023-03-24_10h29.58.663,EXNAT-2,2022.2.5,376.08846107097224,
1,0,1,0,,Shakespeares,#88BA3F,None,None,None,None,0.13299950100190472,text_09,Reading_Baseline_main,77,,,,,,r,w,no,2023-03-24_10h29.58.663,EXNAT-2,2022.2.5,376.08846107097224,
1,0,1,0,,Stück,#D292F3,None,None,None,None,0.20272967100027017,text_09,Reading_Baseline_main,78,,,,,,r,w,no,2023-03-24_10h29.58.663,EXNAT-2,2022.2.5,376.08846107097224,
1,0,1,0,,"Hamlet".,#F989A2,None,None,None,None,0.15985994099173695,text_09,Reading_Baseline_main,79,,,,,,r,w,no,2023-03-24_10h29.58.663,EXNAT-2,2022.2.5,376.08846107097224,
1,0,1,0,,Eine,#88BA3F,None,None,None,None,0.16273454298789147,text_09,Reading_Baseline_main,80,,,,,,r,w,no,2023-03-24_10h29.58.663,EXNAT-2,2022.2.5,376.08846107097224,
1,0,1,0,,Nebenhandlung,#2AB7EF,None,None,None,None,0.16508012000122108,text_09,Reading_Baseline_main,81,,,,,,r,w,no,2023-03-24_10h29.58.663,EXNAT-2,2022.2.5,376.08846107097224,
1,0,1,0,,des,#2AB7EF,None,None,None,None,0.1543845819978742,text_09,Reading_Baseline_main,82,,,,,,r,w,no,2023-03-24_10h29.58.663,EXNAT-2,2022.2.5,376.08846107097224,
1,0,1,0,,Stücks,#D292F3,None,None,None,None,0.172549088994856,text_09,Reading_Baseline_main,83,,,,,,r,w,no,2023-03-24_10h29.58.663,EXNAT-2,2022.2.5,376.08846107097224,
1,0,1,0,,erzählt,#D292F3,None,None,None,None,0.17301883500476833,text_09,Reading_Baseline_main,84,,,,,,r,w,no,2023-03-24_10h29.58.663,EXNAT-2,2022.2.5,376.08846107097224,
1,0,1,0,,die,#88BA3F,None,None,None,None,0.15770332899410278,text_09,Reading_Baseline_main,85,,,,,,r,w,no,2023-03-24_10h29.58.663,EXNAT-2,2022.2.5,376.08846107097224,
1,0,1,0,,Geschichte,#D292F3,None,None,None,None,0.15260397498786915,text_09,Reading_Baseline_main,86,,,,,,r,w,no,2023-03-24_10h29.58.663,EXNAT-2,2022.2.5,376.08846107097224,
1,0,1,0,,der,#D292F3,None,None,None,None,0.16520321198913734,text_09,Reading_Baseline_main,87,,,,,,r,w,no,2023-03-24_10h29.58.663,EXNAT-2,2022.2.5,376.08846107097224,
1,0,1,0,,fiktiven,#D292F3,None,None,None,None,0.16629501500574406,text_09,Reading_Baseline_main,88,,,,,,r,w,no,2023-03-24_10h29.58.663,EXNAT-2,2022.2.5,376.08846107097224,
1,0,1,0,,Edeldame,#F989A2,None,None,None,None,0.14456669399805833,text_09,Reading_Baseline_main,89,,,,,,r,w,no,2023-03-24_10h29.58.663,EXNAT-2,2022.2.5,376.08846107097224,
1,0,1,0,,"Ophelia,",#88BA3F,None,None,None,None,0.18064415600383654,text_09,Reading_Baseline_main,90,,,,,,r,w,no,2023-03-24_10h29.58.663,EXNAT-2,2022.2.5,376.08846107097224,
1,0,1,0,,der,#2AB7EF,None,None,None,None,0.17276997001317795,text_09,Reading_Baseline_main,91,,,,,,r,w,no,2023-03-24_10h29.58.663,EXNAT-2,2022.2.5,376.08846107097224,
1,0,1,0,,Tochter,#F989A2,None,None,None,None,0.14998810799443163,text_09,Reading_Baseline_main,92,,,,,,r,w,no,2023-03-24_10h29.58.663,EXNAT-2,2022.2.5,376.08846107097224,
1,0,1,0,,eines,#88BA3F,None,None,None,None,0.1559339460072806,text_09,Reading_Baseline_main,93,,,,,,r,w,no,2023-03-24_10h29.58.663,EXNAT-2,2022.2.5,376.08846107097224,
1,0,1,0,,Kämmerers.,#2AB7EF,None,None,None,None,0.17119447499862872,text_09,Reading_Baseline_main,94,,,,,,r,w,no,2023-03-24_10h29.58.663,EXNAT-2,2022.2.5,376.08846107097224,
1,0,1,0,,Ophelia,#F989A2,None,None,None,None,0.142454397995607,text_09,Reading_Baseline_main,95,,,,,,r,w,no,2023-03-24_10h29.58.663,EXNAT-2,2022.2.5,376.08846107097224,
1,0,1,0,,wächst,#D292F3,None,None,None,None,0.16997743799583986,text_09,Reading_Baseline_main,96,,,,,,r,w,no,2023-03-24_10h29.58.663,EXNAT-2,2022.2.5,376.08846107097224,
1,0,1,0,,am,#2AB7EF,None,None,None,None,0.16249728699040134,text_09,Reading_Baseline_main,97,,,,,,r,w,no,2023-03-24_10h29.58.663,EXNAT-2,2022.2.5,376.08846107097224,
1,0,1,0,,dänischen,#F989A2,None,None,None,None,0.16469716699793935,text_09,Reading_Baseline_main,98,,,,,,r,w,no,2023-03-24_10h29.58.663,EXNAT-2,2022.2.5,376.08846107097224,
1,0,1,0,,Königshof,#D292F3,None,None,None,None,0.1514066040108446,text_09,Reading_Baseline_main,99,,,,,,r,w,no,2023-03-24_10h29.58.663,EXNAT-2,2022.2.5,376.08846107097224,
1,0,1,0,,"auf,",#D292F3,None,None,None,None,0.17528182099340484,text_09,Reading_Baseline_main,100,,,,,,r,w,no,2023-03-24_10h29.58.663,EXNAT-2,2022.2.5,376.08846107097224,
1,0,1,0,,wo,#2AB7EF,None,None,None,None,0.17489805100194644,text_09,Reading_Baseline_main,101,,,,,,r,w,no,2023-03-24_10h29.58.663,EXNAT-2,2022.2.5,376.08846107097224,
1,0,1,0,,sie,#D292F3,None,None,None,None,0.15687913101282902,text_09,Reading_Baseline_main,102,,,,,,r,w,no,2023-03-24_10h29.58.663,EXNAT-2,2022.2.5,376.08846107097224,
1,0,1,0,,die,#D292F3,None,None,None,None,0.15379258600296453,text_09,Reading_Baseline_main,103,,,,,,r,w,no,2023-03-24_10h29.58.663,EXNAT-2,2022.2.5,376.08846107097224,
1,0,1,0,,Geliebte,#88BA3F,None,None,None,None,0.16623387500294484,text_09,Reading_Baseline_main,104,,,,,,r,w,no,2023-03-24_10h29.58.663,EXNAT-2,2022.2.5,376.08846107097224,
1,0,1,0,,des,#F989A2,None,None,None,None,0.16813566100609023,text_09,Reading_Baseline_main,105,,,,,,r,w,no,2023-03-24_10h29.58.663,EXNAT-2,2022.2.5,376.08846107097224,
1,0,1,0,,Prinzen,#88BA3F,None,None,None,None,0.17520384599629324,text_09,Reading_Baseline_main,106,,,,,,r,w,no,2023-03-24_10h29.58.663,EXNAT-2,2022.2.5,376.08846107097224,
1,0,1,0,,Hamlet,#F989A2,None,None,None,None,0.17204571799084079,text_09,Reading_Baseline_main,107,,,,,,r,w,no,2023-03-24_10h29.58.663,EXNAT-2,2022.2.5,376.08846107097224,
1,0,1,0,,wird.,#88BA3F,None,None,None,None,0.1734111599944299,text_09,Reading_Baseline_main,108,,,,,,r,w,no,2023-03-24_10h29.58.663,EXNAT-2,2022.2.5,376.08846107097224,
1,0,1,0,,Ihre,#D292F3,None,None,None,None,0.1604026109998813,text_09,Reading_Baseline_main,109,,,,,,r,w,no,2023-03-24_10h29.58.663,EXNAT-2,2022.2.5,376.08846107097224,
1,0,1,0,,Beziehung,#2AB7EF,None,None,None,None,0.17326586200215388,text_09,Reading_Baseline_main,110,,,,,,r,w,no,2023-03-24_10h29.58.663,EXNAT-2,2022.2.5,376.08846107097224,
1,0,1,0,,wird,#D292F3,None,None,None,None,0.17406833400309552,text_09,Reading_Baseline_main,111,,,,,,r,w,no,2023-03-24_10h29.58.663,EXNAT-2,2022.2.5,376.08846107097224,
1,0,1,0,,von,#2AB7EF,None,None,None,None,0.17310328299936373,text_09,Reading_Baseline_main,112,,,,,,r,w,no,2023-03-24_10h29.58.663,EXNAT-2,2022.2.5,376.08846107097224,
1,0,1,0,,ihrem,#F989A2,None,None,None,None,0.1729080299992347,text_09,Reading_Baseline_main,113,,,,,,r,w,no,2023-03-24_10h29.58.663,EXNAT-2,2022.2.5,376.08846107097224,
1,0,1,0,,Vater,#88BA3F,None,None,None,None,0.1731969350075815,text_09,Reading_Baseline_main,114,,,,,,r,w,no,2023-03-24_10h29.58.663,EXNAT-2,2022.2.5,376.08846107097224,
1,0,1,0,,und,#2AB7EF,None,None,None,None,0.16702016799536068,text_09,Reading_Baseline_main,115,,,,,,r,w,no,2023-03-24_10h29.58.663,EXNAT-2,2022.2.5,376.08846107097224,
1,0,1,0,,ihrem,#2AB7EF,None,None,None,None,0.16280044699669816,text_09,Reading_Baseline_main,116,,,,,,r,w,no,2023-03-24_10h29.58.663,EXNAT-2,2022.2.5,376.08846107097224,
1,0,1,0,,Bruder,#F989A2,None,None,None,None,0.1699208250065567,text_09,Reading_Baseline_main,117,,,,,,r,w,no,2023-03-24_10h29.58.663,EXNAT-2,2022.2.5,376.08846107097224,
1,0,1,0,,jedoch,#D292F3,None,None,None,None,0.16700353399210144,text_09,Reading_Baseline_main,118,,,,,,r,w,no,2023-03-24_10h29.58.663,EXNAT-2,2022.2.5,376.08846107097224,
1,0,1,0,,missbilligt.,#88BA3F,None,None,None,None,0.17309630100498907,text_09,Reading_Baseline_main,119,,,,,,r,w,no,2023-03-24_10h29.58.663,EXNAT-2,2022.2.5,376.08846107097224,
1,0,1,0,,Sie,#F989A2,None,None,None,None,0.16674511099699885,text_09,Reading_Baseline_main,120,,,,,,r,w,no,2023-03-24_10h29.58.663,EXNAT-2,2022.2.5,376.08846107097224,
1,0,1,0,,"bezweifeln,",#D292F3,None,None,None,None,0.18028333999973256,text_09,Reading_Baseline_main,121,,,,,,r,w,no,2023-03-24_10h29.58.663,EXNAT-2,2022.2.5,376.08846107097224,
1,0,1,0,,dass,#88BA3F,None,None,None,None,0.17165404499974102,text_09,Reading_Baseline_main,122,,,,,,r,w,no,2023-03-24_10h29.58.663,EXNAT-2,2022.2.5,376.08846107097224,
1,0,1,0,,Hamlet,#88BA3F,None,None,None,None,0.1636695829947712,text_09,Reading_Baseline_main,123,,,,,,r,w,no,2023-03-24_10h29.58.663,EXNAT-2,2022.2.5,376.08846107097224,
1,0,1,0,,die,#D292F3,None,None,None,None,0.18178658399847336,text_09,Reading_Baseline_main,124,,,,,,r,w,no,2023-03-24_10h29.58.663,EXNAT-2,2022.2.5,376.08846107097224,
1,0,1,0,,ehrliche,#D292F3,None,None,None,None,0.1673465700005181,text_09,Reading_Baseline_main,125,,,,,,r,w,no,2023-03-24_10h29.58.663,EXNAT-2,2022.2.5,376.08846107097224,
1,0,1,0,,Absicht,#F989A2,None,None,None,None,0.19513046900101472,text_09,Reading_Baseline_main,126,,,,,,r,w,no,2023-03-24_10h29.58.663,EXNAT-2,2022.2.5,376.08846107097224,
1,0,1,0,,"hat,",#2AB7EF,None,None,None,None,0.1546146840119036,text_09,Reading_Baseline_main,127,,,,,,r,w,no,2023-03-24_10h29.58.663,EXNAT-2,2022.2.5,376.08846107097224,
1,0,1,0,,Ophelia,#F989A2,None,None,None,None,0.1877951639908133,text_09,Reading_Baseline_main,128,,,,,,r,w,no,2023-03-24_10h29.58.663,EXNAT-2,2022.2.5,376.08846107097224,
1,0,1,0,,zu,#2AB7EF,None,None,None,None,0.17904972600808833,text_09,Reading_Baseline_main,129,,,,,,r,w,no,2023-03-24_10h29.58.663,EXNAT-2,2022.2.5,376.08846107097224,
1,0,1,0,,heiraten.,#F989A2,None,None,None,None,0.16648770699976012,text_09,Reading_Baseline_main,130,,,,,,r,w,no,2023-03-24_10h29.58.663,EXNAT-2,2022.2.5,376.08846107097224,
1,0,1,0,,Als,#2AB7EF,None,None,None,None,0.15927011700114235,text_09,Reading_Baseline_main,131,,,,,,r,w,no,2023-03-24_10h29.58.663,EXNAT-2,2022.2.5,376.08846107097224,
1,0,1,0,,Hamlet,#88BA3F,None,None,None,None,0.16534163799951784,text_09,Reading_Baseline_main,132,,,,,,r,w,no,2023-03-24_10h29.58.663,EXNAT-2,2022.2.5,376.08846107097224,
1,0,1,0,,aus,#2AB7EF,None,None,None,None,0.15458552599011455,text_09,Reading_Baseline_main,133,,,,,,r,w,no,2023-03-24_10h29.58.663,EXNAT-2,2022.2.5,376.08846107097224,
1,0,1,0,,Versehen,#D292F3,None,None,None,None,0.17661878099897876,text_09,Reading_Baseline_main,134,,,,,,r,w,no,2023-03-24_10h29.58.663,EXNAT-2,2022.2.5,376.08846107097224,
1,0,1,0,,Ophelias,#F989A2,None,None,None,None,0.17716503200063016,text_09,Reading_Baseline_main,135,,,,,,r,w,no,2023-03-24_10h29.58.663,EXNAT-2,2022.2.5,376.08846107097224,
1,0,1,0,,Vater,#2AB7EF,None,None,None,None,0.1997178530000383,text_09,Reading_Baseline_main,136,,,,,,r,w,no,2023-03-24_10h29.58.663,EXNAT-2,2022.2.5,376.08846107097224,
1,0,1,0,,"tötet,",#2AB7EF,None,None,None,None,0.17775719599740114,text_09,Reading_Baseline_main,137,,,,,,r,w,no,2023-03-24_10h29.58.663,EXNAT-2,2022.2.5,376.08846107097224,
1,0,1,0,,verzweifelt,#88BA3F,None,None,None,None,0.17838041100185364,text_09,Reading_Baseline_main,138,,,,,,r,w,no,2023-03-24_10h29.58.663,EXNAT-2,2022.2.5,376.08846107097224,
1,0,1,0,,sie,#F989A2,None,None,None,None,0.16834371100412682,text_09,Reading_Baseline_main,139,,,,,,r,w,no,2023-03-24_10h29.58.663,EXNAT-2,2022.2.5,376.08846107097224,
1,0,1,0,,und,#F989A2,None,None,None,None,0.17187767699942924,text_09,Reading_Baseline_main,140,,,,,,r,w,no,2023-03-24_10h29.58.663,EXNAT-2,2022.2.5,376.08846107097224,
1,0,1,0,,erleidet,#D292F3,None,None,None,None,0.17500755199580453,text_09,Reading_Baseline_main,141,,,,,,r,w,no,2023-03-24_10h29.58.663,EXNAT-2,2022.2.5,376.08846107097224,
1,0,1,0,,ein,#88BA3F,None,None,None,None,0.17180603099404834,text_09,Reading_Baseline_main,142,,,,,,r,w,no,2023-03-24_10h29.58.663,EXNAT-2,2022.2.5,376.08846107097224,
1,0,1,0,,ähnliches,#88BA3F,None,None,None,None,0.16322585700254422,text_09,Reading_Baseline_main,143,,,,,,r,w,no,2023-03-24_10h29.58.663,EXNAT-2,2022.2.5,376.08846107097224,
1,0,1,0,,Schicksal,#D292F3,None,None,None,None,0.1719452480028849,text_09,Reading_Baseline_main,144,,,,,,r,w,no,2023-03-24_10h29.58.663,EXNAT-2,2022.2.5,376.08846107097224,
1,0,1,0,,wie,#F989A2,None,None,None,None,0.18261696900299285,text_09,Reading_Baseline_main,145,,,,,,r,w,no,2023-03-24_10h29.58.663,EXNAT-2,2022.2.5,376.08846107097224,
1,0,1,0,,die,#2AB7EF,None,None,None,None,0.1705194370006211,text_09,Reading_Baseline_main,146,,,,,,r,w,no,2023-03-24_10h29.58.663,EXNAT-2,2022.2.5,376.08846107097224,
1,0,1,0,,kleine,#2AB7EF,None,None,None,None,0.16529393699602224,text_09,Reading_Baseline_main,147,,,,,,r,w,no,2023-03-24_10h29.58.663,EXNAT-2,2022.2.5,376.08846107097224,
1,0,1,0,,Jane.,#F989A2,None,None,None,None,0.16532413600361906,text_09,Reading_Baseline_main,148,,,,,,r,w,no,2023-03-24_10h29.58.663,EXNAT-2,2022.2.5,376.08846107097224,
1,0,1,0,,Beim,#D292F3,None,None,None,None,0.16969174600671977,text_09,Reading_Baseline_main,149,,,,,,r,w,no,2023-03-24_10h29.58.663,EXNAT-2,2022.2.5,376.08846107097224,
1,0,1,0,,Blumenpflücken,#88BA3F,None,None,None,None,0.17249630000151228,text_09,Reading_Baseline_main,150,,,,,,r,w,no,2023-03-24_10h29.58.663,EXNAT-2,2022.2.5,376.08846107097224,
1,0,1,0,,an,#2AB7EF,None,None,None,None,0.16929890899336897,text_09,Reading_Baseline_main,151,,,,,,r,w,no,2023-03-24_10h29.58.663,EXNAT-2,2022.2.5,376.08846107097224,
1,0,1,0,,einem,#88BA3F,None,None,None,None,0.16890671000874136,text_09,Reading_Baseline_main,152,,,,,,r,w,no,2023-03-24_10h29.58.663,EXNAT-2,2022.2.5,376.08846107097224,
1,0,1,0,,Bachufer,#2AB7EF,None,None,None,None,0.15802081598667428,text_09,Reading_Baseline_main,153,,,,,,r,w,no,2023-03-24_10h29.58.663,EXNAT-2,2022.2.5,376.08846107097224,
1,0,1,0,,verliert,#D292F3,None,None,None,None,0.16186650600866415,text_09,Reading_Baseline_main,154,,,,,,r,w,no,2023-03-24_10h29.58.663,EXNAT-2,2022.2.5,376.08846107097224,
1,0,1,0,,sie,#D292F3,None,None,None,None,0.17485313999350183,text_09,Reading_Baseline_main,155,,,,,,r,w,no,2023-03-24_10h29.58.663,EXNAT-2,2022.2.5,376.08846107097224,
1,0,1,0,,das,#F989A2,None,None,None,None,0.17117139800393488,text_09,Reading_Baseline_main,156,,,,,,r,w,no,2023-03-24_10h29.58.663,EXNAT-2,2022.2.5,376.08846107097224,
1,0,1,0,,Gleichgewicht,#D292F3,None,None,None,None,0.16470215700974222,text_09,Reading_Baseline_main,157,,,,,,r,w,no,2023-03-24_10h29.58.663,EXNAT-2,2022.2.5,376.08846107097224,
1,0,1,0,,und,#2AB7EF,None,None,None,None,0.16661530299461447,text_09,Reading_Baseline_main,158,,,,,,r,w,no,2023-03-24_10h29.58.663,EXNAT-2,2022.2.5,376.08846107097224,
1,0,1,0,,fällt,#88BA3F,None,None,None,None,0.1663770199957071,text_09,Reading_Baseline_main,159,,,,,,r,w,no,2023-03-24_10h29.58.663,EXNAT-2,2022.2.5,376.08846107097224,
1,0,1,0,,in,#88BA3F,None,None,None,None,0.15877343899046537,text_09,Reading_Baseline_main,160,,,,,,r,w,no,2023-03-24_10h29.58.663,EXNAT-2,2022.2.5,376.08846107097224,
1,0,1,0,,den,#F989A2,None,None,None,None,0.1790035929880105,text_09,Reading_Baseline_main,161,,,,,,r,w,no,2023-03-24_10h29.58.663,EXNAT-2,2022.2.5,376.08846107097224,
1,0,1,0,,Bach.,#F989A2,None,None,None,None,0.1762683340057265,text_09,Reading_Baseline_main,162,,,,,,r,w,no,2023-03-24_10h29.58.663,EXNAT-2,2022.2.5,376.08846107097224,
1,0,1,0,,Ihr,#D292F3,None,None,None,None,0.1595951600029366,text_09,Reading_Baseline_main,163,,,,,,r,w,no,2023-03-24_10h29.58.663,EXNAT-2,2022.2.5,376.08846107097224,
1,0,1,0,,Kleid,#88BA3F,None,None,None,None,0.1735961790109286,text_09,Reading_Baseline_main,164,,,,,,r,w,no,2023-03-24_10h29.58.663,EXNAT-2,2022.2.5,376.08846107097224,
1,0,1,0,,saugt,#2AB7EF,None,None,None,None,0.19410837900068145,text_09,Reading_Baseline_main,165,,,,,,r,w,no,2023-03-24_10h29.58.663,EXNAT-2,2022.2.5,376.08846107097224,
1,0,1,0,,sich,#D292F3,None,None,None,None,0.15808322800148744,text_09,Reading_Baseline_main,166,,,,,,r,w,no,2023-03-24_10h29.58.663,EXNAT-2,2022.2.5,376.08846107097224,
1,0,1,0,,mit,#2AB7EF,None,None,None,None,0.17152168099710252,text_09,Reading_Baseline_main,167,,,,,,r,w,no,2023-03-24_10h29.58.663,EXNAT-2,2022.2.5,376.08846107097224,
1,0,1,0,,Wasser,#F989A2,None,None,None,None,0.15614536599605344,text_09,Reading_Baseline_main,168,,,,,,r,w,no,2023-03-24_10h29.58.663,EXNAT-2,2022.2.5,376.08846107097224,
1,0,1,0,,voll,#D292F3,None,None,None,None,0.18983839800057467,text_09,Reading_Baseline_main,169,,,,,,r,w,no,2023-03-24_10h29.58.663,EXNAT-2,2022.2.5,376.08846107097224,
1,0,1,0,,und,#88BA3F,None,None,None,None,0.1703630670090206,text_09,Reading_Baseline_main,170,,,,,,r,w,no,2023-03-24_10h29.58.663,EXNAT-2,2022.2.5,376.08846107097224,
1,0,1,0,,zieht,#2AB7EF,None,None,None,None,0.1561877419881057,text_09,Reading_Baseline_main,171,,,,,,r,w,no,2023-03-24_10h29.58.663,EXNAT-2,2022.2.5,376.08846107097224,
1,0,1,0,,sie,#2AB7EF,None,None,None,None,0.1669919960113475,text_09,Reading_Baseline_main,172,,,,,,r,w,no,2023-03-24_10h29.58.663,EXNAT-2,2022.2.5,376.08846107097224,
1,0,1,0,,wie,#2AB7EF,None,None,None,None,0.18432197299262043,text_09,Reading_Baseline_main,173,,,,,,r,w,no,2023-03-24_10h29.58.663,EXNAT-2,2022.2.5,376.08846107097224,
1,0,1,0,,ein,#88BA3F,None,None,None,None,0.14777829499507789,text_09,Reading_Baseline_main,174,,,,,,r,w,no,2023-03-24_10h29.58.663,EXNAT-2,2022.2.5,376.08846107097224,
1,0,1,0,,Gewicht,#F989A2,None,None,None,None,0.1625705889891833,text_09,Reading_Baseline_main,175,,,,,,r,w,no,2023-03-24_10h29.58.663,EXNAT-2,2022.2.5,376.08846107097224,
1,0,1,0,,nach,#88BA3F,None,None,None,None,0.1557750979991397,text_09,Reading_Baseline_main,176,,,,,,r,w,no,2023-03-24_10h29.58.663,EXNAT-2,2022.2.5,376.08846107097224,
1,0,1,0,,unten.,#D292F3,None,None,None,None,0.17156496900133789,text_09,Reading_Baseline_main,177,,,,,,r,w,no,2023-03-24_10h29.58.663,EXNAT-2,2022.2.5,376.08846107097224,
1,0,1,0,,Ob,#F989A2,None,None,None,None,0.17034294099721592,text_09,Reading_Baseline_main,178,,,,,,r,w,no,2023-03-24_10h29.58.663,EXNAT-2,2022.2.5,376.08846107097224,
1,0,1,0,,ihr,#2AB7EF,None,None,None,None,0.1669609090022277,text_09,Reading_Baseline_main,179,,,,,,r,w,no,2023-03-24_10h29.58.663,EXNAT-2,2022.2.5,376.08846107097224,
1,0,1,0,,Tod,#F989A2,None,None,None,None,0.17778045999875758,text_09,Reading_Baseline_main,180,,,,,,r,w,no,2023-03-24_10h29.58.663,EXNAT-2,2022.2.5,376.08846107097224,
1,0,1,0,,ein,#F989A2,None,None,None,None,0.16506538300018292,text_09,Reading_Baseline_main,181,,,,,,r,w,no,2023-03-24_10h29.58.663,EXNAT-2,2022.2.5,376.08846107097224,
1,0,1,0,,Unfall,#2AB7EF,None,None,None,None,0.16605301000527106,text_09,Reading_Baseline_main,182,,,,,,r,w,no,2023-03-24_10h29.58.663,EXNAT-2,2022.2.5,376.08846107097224,
1,0,1,0,,ist,#F989A2,None,None,None,None,0.16988228500122204,text_09,Reading_Baseline_main,183,,,,,,r,w,no,2023-03-24_10h29.58.663,EXNAT-2,2022.2.5,376.08846107097224,
1,0,1,0,,oder,#88BA3F,None,None,None,None,0.16367450800316874,text_09,Reading_Baseline_main,184,,,,,,r,w,no,2023-03-24_10h29.58.663,EXNAT-2,2022.2.5,376.08846107097224,
1,0,1,0,,sie,#F989A2,None,None,None,None,0.2030329450062709,text_09,Reading_Baseline_main,185,,,,,,r,w,no,2023-03-24_10h29.58.663,EXNAT-2,2022.2.5,376.08846107097224,
1,0,1,0,,sich,#88BA3F,None,None,None,None,0.19155782400048338,text_09,Reading_Baseline_main,186,,,,,,r,w,no,2023-03-24_10h29.58.663,EXNAT-2,2022.2.5,376.08846107097224,
1,0,1,0,,mit,#D292F3,None,None,None,None,0.17850021200138144,text_09,Reading_Baseline_main,187,,,,,,r,w,no,2023-03-24_10h29.58.663,EXNAT-2,2022.2.5,376.08846107097224,
1,0,1,0,,Absicht,#2AB7EF,None,None,None,None,0.15630395499465521,text_09,Reading_Baseline_main,188,,,,,,r,w,no,2023-03-24_10h29.58.663,EXNAT-2,2022.2.5,376.08846107097224,
1,0,1,0,,nicht,#2AB7EF,None,None,None,None,0.17163844699098263,text_09,Reading_Baseline_main,189,,,,,,r,w,no,2023-03-24_10h29.58.663,EXNAT-2,2022.2.5,376.08846107097224,
1,0,1,0,,aus,#88BA3F,None,None,None,None,0.16861804999643937,text_09,Reading_Baseline_main,190,,,,,,r,w,no,2023-03-24_10h29.58.663,EXNAT-2,2022.2.5,376.08846107097224,
1,0,1,0,,dem,#D292F3,None,None,None,None,0.16269541099609341,text_09,Reading_Baseline_main,191,,,,,,r,w,no,2023-03-24_10h29.58.663,EXNAT-2,2022.2.5,376.08846107097224,
1,0,1,0,,Wasser,#D292F3,None,None,None,None,0.20453880599234253,text_09,Reading_Baseline_main,192,,,,,,r,w,no,2023-03-24_10h29.58.663,EXNAT-2,2022.2.5,376.08846107097224,
1,0,1,0,,"rettet,",#2AB7EF,None,None,None,None,0.20150357599777635,text_09,Reading_Baseline_main,193,,,,,,r,w,no,2023-03-24_10h29.58.663,EXNAT-2,2022.2.5,376.08846107097224,
1,0,1,0,,wird,#88BA3F,None,None,None,None,0.17151017099968158,text_09,Reading_Baseline_main,194,,,,,,r,w,no,2023-03-24_10h29.58.663,EXNAT-2,2022.2.5,376.08846107097224,
1,0,1,0,,im,#2AB7EF,None,None,None,None,0.18926266000198666,text_09,Reading_Baseline_main,195,,,,,,r,w,no,2023-03-24_10h29.58.663,EXNAT-2,2022.2.5,376.08846107097224,
1,0,1,0,,Stück,#2AB7EF,None,None,None,None,0.1657531380042201,text_09,Reading_Baseline_main,196,,,,,,r,w,no,2023-03-24_10h29.58.663,EXNAT-2,2022.2.5,376.08846107097224,
1,0,1,0,,offengelassen.,#F989A2,None,None,None,None,0.16972858399094548,text_09,Reading_Baseline_main,197,,,,,,r,w,no,2023-03-24_10h29.58.663,EXNAT-2,2022.2.5,376.08846107097224,
1,0,1,0,,Die,#F989A2,None,None,None,None,0.18453126700478606,text_09,Reading_Baseline_main,198,,,,,,r,w,no,2023-03-24_10h29.58.663,EXNAT-2,2022.2.5,376.08846107097224,
1,0,1,0,,erstaunliche,#D292F3,None,None,None,None,0.19065368799783755,text_09,Reading_Baseline_main,199,,,,,,r,w,no,2023-03-24_10h29.58.663,EXNAT-2,2022.2.5,376.08846107097224,
1,0,1,0,,Verbindung,#2AB7EF,None,None,None,None,0.15433732999372296,text_09,Reading_Baseline_main,200,,,,,,r,w,no,2023-03-24_10h29.58.663,EXNAT-2,2022.2.5,376.08846107097224,
1,0,1,0,,zwischen,#88BA3F,None,None,None,None,0.16709689199342392,text_09,Reading_Baseline_main,201,,,,,,r,w,no,2023-03-24_10h29.58.663,EXNAT-2,2022.2.5,376.08846107097224,
1,0,1,0,,realen,#F989A2,None,None,None,None,0.18292027999996208,text_09,Reading_Baseline_main,202,,,,,,r,w,no,2023-03-24_10h29.58.663,EXNAT-2,2022.2.5,376.08846107097224,
1,0,1,0,,Ereignissen,#88BA3F,None,None,None,None,0.1668225149915088,text_09,Reading_Baseline_main,203,,,,,,r,w,no,2023-03-24_10h29.58.663,EXNAT-2,2022.2.5,376.08846107097224,
1,0,1,0,,und,#D292F3,None,None,None,None,0.1924298249941785,text_09,Reading_Baseline_main,204,,,,,,r,w,no,2023-03-24_10h29.58.663,EXNAT-2,2022.2.5,376.08846107097224,
1,0,1,0,,Shakespeares,#88BA3F,None,None,None,None,0.16400768999301363,text_09,Reading_Baseline_main,205,,,,,,r,w,no,2023-03-24_10h29.58.663,EXNAT-2,2022.2.5,376.08846107097224,
1,0,1,0,,"Hamlet",#88BA3F,None,None,None,None,0.16957097701379098,text_09,Reading_Baseline_main,206,,,,,,r,w,no,2023-03-24_10h29.58.663,EXNAT-2,2022.2.5,376.08846107097224,
1,0,1,0,,fiel,#D292F3,None,None,None,None,0.15572843099653255,text_09,Reading_Baseline_main,207,,,,,,r,w,no,2023-03-24_10h29.58.663,EXNAT-2,2022.2.5,376.08846107097224,
1,0,1,0,,Historikern,#F989A2,None,None,None,None,0.16345147500396706,text_09,Reading_Baseline_main,208,,,,,,r,w,no,2023-03-24_10h29.58.663,EXNAT-2,2022.2.5,376.08846107097224,
1,0,1,0,,"auf,",#D292F3,None,None,None,None,0.16873756599670742,text_09,Reading_Baseline_main,209,,,,,,r,w,no,2023-03-24_10h29.58.663,EXNAT-2,2022.2.5,376.08846107097224,
1,0,1,0,,als,#2AB7EF,None,None,None,None,0.16560602901154198,text_09,Reading_Baseline_main,210,,,,,,r,w,no,2023-03-24_10h29.58.663,EXNAT-2,2022.2.5,376.08846107097224,
1,0,1,0,,sie,#2AB7EF,None,None,None,None,0.1754405409883475,text_09,Reading_Baseline_main,211,,,,,,r,w,no,2023-03-24_10h29.58.663,EXNAT-2,2022.2.5,376.08846107097224,
1,0,1,0,,alte,#F989A2,None,None,None,None,0.16137522998906206,text_09,Reading_Baseline_main,212,,,,,,r,w,no,2023-03-24_10h29.58.663,EXNAT-2,2022.2.5,376.08846107097224,
1,0,1,0,,medizinische,#88BA3F,None,None,None,None,0.1670053269917844,text_09,Reading_Baseline_main,213,,,,,,r,w,no,2023-03-24_10h29.58.663,EXNAT-2,2022.2.5,376.08846107097224,
1,0,1,0,,Akten,#2AB7EF,None,None,None,None,0.1853114400000777,text_09,Reading_Baseline_main,214,,,,,,r,w,no,2023-03-24_10h29.58.663,EXNAT-2,2022.2.5,376.08846107097224,
1,0,1,0,,untersuchten.,#F989A2,None,None,None,None,0.1626510700007202,text_09,Reading_Baseline_main,215,,,,,,r,w,no,2023-03-24_10h29.58.663,EXNAT-2,2022.2.5,376.08846107097224,
1,0,1,0,,Die,#D292F3,None,None,None,None,0.17698072899656836,text_09,Reading_Baseline_main,216,,,,,,r,w,no,2023-03-24_10h29.58.663,EXNAT-2,2022.2.5,376.08846107097224,
1,0,1,0,,Ähnlichkeit,#2AB7EF,None,None,None,None,0.16653601800499018,text_09,Reading_Baseline_main,217,,,,,,r,w,no,2023-03-24_10h29.58.663,EXNAT-2,2022.2.5,376.08846107097224,
1,0,1,0,,der,#88BA3F,None,None,None,None,0.16310193500248715,text_09,Reading_Baseline_main,218,,,,,,r,w,no,2023-03-24_10h29.58.663,EXNAT-2,2022.2.5,376.08846107097224,
1,0,1,0,,Nachnamen,#88BA3F,None,None,None,None,0.1730980959982844,text_09,Reading_Baseline_main,219,,,,,,r,w,no,2023-03-24_10h29.58.663,EXNAT-2,2022.2.5,376.08846107097224,
1,0,1,0,,könnte,#88BA3F,None,None,None,None,0.1666125369956717,text_09,Reading_Baseline_main,220,,,,,,r,w,no,2023-03-24_10h29.58.663,EXNAT-2,2022.2.5,376.08846107097224,
1,0,1,0,,sogar,#D292F3,None,None,None,None,0.3576144819962792,text_09,Reading_Baseline_main,221,,,,,,r,w,no,2023-03-24_10h29.58.663,EXNAT-2,2022.2.5,376.08846107097224,
1,0,1,0,,darauf,#D292F3,None,None,None,None,0.2026575650088489,text_09,Reading_Baseline_main,222,,,,,,r,w,no,2023-03-24_10h29.58.663,EXNAT-2,2022.2.5,376.08846107097224,
1,0,1,0,,"hinweisen,",#2AB7EF,None,None,None,None,0.15660006999678444,text_09,Reading_Baseline_main,223,,,,,,r,w,no,2023-03-24_10h29.58.663,EXNAT-2,2022.2.5,376.08846107097224,
1,0,1,0,,dass,#D292F3,None,None,None,None,0.17574589099967852,text_09,Reading_Baseline_main,224,,,,,,r,w,no,2023-03-24_10h29.58.663,EXNAT-2,2022.2.5,376.08846107097224,
1,0,1,0,,William,#F989A2,None,None,None,None,0.15942484099650756,text_09,Reading_Baseline_main,225,,,,,,r,w,no,2023-03-24_10h29.58.663,EXNAT-2,2022.2.5,376.08846107097224,
1,0,1,0,,und,#2AB7EF,None,None,None,None,0.18934652900497895,text_09,Reading_Baseline_main,226,,,,,,r,w,no,2023-03-24_10h29.58.663,EXNAT-2,2022.2.5,376.08846107097224,
1,0,1,0,,Jane,#F989A2,None,None,None,None,0.18268576000991743,text_09,Reading_Baseline_main,227,,,,,,r,w,no,2023-03-24_10h29.58.663,EXNAT-2,2022.2.5,376.08846107097224,
1,0,1,0,,Verwandte,#F989A2,None,None,None,None,0.15802667300158646,text_09,Reading_Baseline_main,228,,,,,,r,w,no,2023-03-24_10h29.58.663,EXNAT-2,2022.2.5,376.08846107097224,
1,0,1,0,,gewesen,#88BA3F,None,None,None,None,0.1816896639938932,text_09,Reading_Baseline_main,229,,,,,,r,w,no,2023-03-24_10h29.58.663,EXNAT-2,2022.2.5,376.08846107097224,
1,0,1,0,,sein,#2AB7EF,None,None,None,None,0.18574161099968478,text_09,Reading_Baseline_main,230,,,,,,r,w,no,2023-03-24_10h29.58.663,EXNAT-2,2022.2.5,376.08846107097224,
1,0,1,0,,könnten.,#F989A2,None,None,None,None,0.16403503500623628,text_09,Reading_Baseline_main,231,,,,,,r,w,no,2023-03-24_10h29.58.663,EXNAT-2,2022.2.5,376.08846107097224,
1,0,1,0,,Feste,#D292F3,None,None,None,None,0.1870360649918439,text_09,Reading_Baseline_main,232,,,,,,r,w,no,2023-03-24_10h29.58.663,EXNAT-2,2022.2.5,376.08846107097224,
1,0,1,0,,Schreibweisen,#D292F3,None,None,None,None,0.17719906300771981,text_09,Reading_Baseline_main,233,,,,,,r,w,no,2023-03-24_10h29.58.663,EXNAT-2,2022.2.5,376.08846107097224,
1,0,1,0,,von,#F989A2,None,None,None,None,0.17466295100166462,text_09,Reading_Baseline_main,234,,,,,,r,w,no,2023-03-24_10h29.58.663,EXNAT-2,2022.2.5,376.08846107097224,
1,0,1,0,,Namen,#88BA3F,None,None,None,None,0.16545403900090605,text_09,Reading_Baseline_main,235,,,,,,r,w,no,2023-03-24_10h29.58.663,EXNAT-2,2022.2.5,376.08846107097224,
1,0,1,0,,gab,#F989A2,None,None,None,None,0.1718750129948603,text_09,Reading_Baseline_main,236,,,,,,r,w,no,2023-03-24_10h29.58.663,EXNAT-2,2022.2.5,376.08846107097224,
1,0,1,0,,es,#F989A2,None,None,None,None,0.1660140249878168,text_09,Reading_Baseline_main,237,,,,,,r,w,no,2023-03-24_10h29.58.663,EXNAT-2,2022.2.5,376.08846107097224,
1,0,1,0,,zu,#D292F3,None,None,None,None,0.17599479299678933,text_09,Reading_Baseline_main,238,,,,,,r,w,no,2023-03-24_10h29.58.663,EXNAT-2,2022.2.5,376.08846107097224,
1,0,1,0,,Shakespeares,#88BA3F,None,None,None,None,0.18234442500397563,text_09,Reading_Baseline_main,239,,,,,,r,w,no,2023-03-24_10h29.58.663,EXNAT-2,2022.2.5,376.08846107097224,
1,0,1,0,,Zeiten,#2AB7EF,None,None,None,None,0.15332214400405064,text_09,Reading_Baseline_main,240,,,,,,r,w,no,2023-03-24_10h29.58.663,EXNAT-2,2022.2.5,376.08846107097224,
1,0,1,0,,nicht.,#D292F3,None,None,None,None,0.17937660199822858,text_09,Reading_Baseline_main,241,,,,,,r,w,no,2023-03-24_10h29.58.663,EXNAT-2,2022.2.5,376.08846107097224,
1,0,1,0,,Für,#2AB7EF,None,None,None,None,0.17139501300698612,text_09,Reading_Baseline_main,242,,,,,,r,w,no,2023-03-24_10h29.58.663,EXNAT-2,2022.2.5,376.08846107097224,
1,0,1,0,,eine,#F989A2,None,None,None,None,0.14451000299595762,text_09,Reading_Baseline_main,243,,,,,,r,w,no,2023-03-24_10h29.58.663,EXNAT-2,2022.2.5,376.08846107097224,
1,0,1,0,,der,#F989A2,None,None,None,None,0.18124244500359055,text_09,Reading_Baseline_main,244,,,,,,r,w,no,2023-03-24_10h29.58.663,EXNAT-2,2022.2.5,376.08846107097224,
1,0,1,0,,Forscherinnen,#2AB7EF,None,None,None,None,0.1492130189872114,text_09,Reading_Baseline_main,245,,,,,,r,w,no,2023-03-24_10h29.58.663,EXNAT-2,2022.2.5,376.08846107097224,
1,0,1,0,,aus,#F989A2,None,None,None,None,0.13414687999465968,text_09,Reading_Baseline_main,246,,,,,,r,w,no,2023-03-24_10h29.58.663,EXNAT-2,2022.2.5,376.08846107097224,
1,0,1,0,,Oxford,#2AB7EF,None,None,None,None,0.1673253479966661,text_09,Reading_Baseline_main,247,,,,,,r,w,no,2023-03-24_10h29.58.663,EXNAT-2,2022.2.5,376.08846107097224,
1,0,1,0,,ist,#88BA3F,None,None,None,None,0.19968202098971233,text_09,Reading_Baseline_main,248,,,,,,r,w,no,2023-03-24_10h29.58.663,EXNAT-2,2022.2.5,376.08846107097224,
1,0,1,0,,dieses,#D292F3,None,None,None,None,0.15594812799827196,text_09,Reading_Baseline_main,249,,,,,,r,w,no,2023-03-24_10h29.58.663,EXNAT-2,2022.2.5,376.08846107097224,
1,0,1,0,,Detail,#88BA3F,None,None,None,None,0.14407604400184937,text_09,Reading_Baseline_main,250,,,,,,r,w,no,2023-03-24_10h29.58.663,EXNAT-2,2022.2.5,376.08846107097224,
1,0,1,0,,aber,#D292F3,None,None,None,None,0.2257526569883339,text_09,Reading_Baseline_main,251,,,,,,r,w,no,2023-03-24_10h29.58.663,EXNAT-2,2022.2.5,376.08846107097224,
1,0,1,0,,nicht,#88BA3F,None,None,None,None,0.19299362500896677,text_09,Reading_Baseline_main,252,,,,,,r,w,no,2023-03-24_10h29.58.663,EXNAT-2,2022.2.5,376.08846107097224,
1,0,1,0,,entscheidend:,#D292F3,None,None,None,None,0.1637329619989032,text_09,Reading_Baseline_main,253,,,,,,r,w,no,2023-03-24_10h29.58.663,EXNAT-2,2022.2.5,376.08846107097224,
1,0,1,0,,"Selbst,#88BA3F,None,None,None,None,0.1762388349889079,text_09,Reading_Baseline_main,254,,,,,,r,w,no,2023-03-24_10h29.58.663,EXNAT-2,2022.2.5,376.08846107097224,
1,0,1,0,,wenn,#F989A2,None,None,None,None,0.16644213799736463,text_09,Reading_Baseline_main,255,,,,,,r,w,no,2023-03-24_10h29.58.663,EXNAT-2,2022.2.5,376.08846107097224,
1,0,1,0,,sie,#88BA3F,None,None,None,None,0.16108278100728057,text_09,Reading_Baseline_main,256,,,,,,r,w,no,2023-03-24_10h29.58.663,EXNAT-2,2022.2.5,376.08846107097224,
1,0,1,0,,nicht,#88BA3F,None,None,None,None,0.18824531199061312,text_09,Reading_Baseline_main,257,,,,,,r,w,no,2023-03-24_10h29.58.663,EXNAT-2,2022.2.5,376.08846107097224,
1,0,1,0,,verwandt,#2AB7EF,None,None,None,None,0.180084801002522,text_09,Reading_Baseline_main,258,,,,,,r,w,no,2023-03-24_10h29.58.663,EXNAT-2,2022.2.5,376.08846107097224,
1,0,1,0,,gewesen,#F989A2,None,None,None,None,0.16306276999239344,text_09,Reading_Baseline_main,259,,,,,,r,w,no,2023-03-24_10h29.58.663,EXNAT-2,2022.2.5,376.08846107097224,
1,0,1,0,,"sind,",#D292F3,None,None,None,None,0.16550874900713097,text_09,Reading_Baseline_main,260,,,,,,r,w,no,2023-03-24_10h29.58.663,EXNAT-2,2022.2.5,376.08846107097224,
1,0,1,0,,hat,#2AB7EF,None,None,None,None,0.1681191179959569,text_09,Reading_Baseline_main,261,,,,,,r,w,no,2023-03-24_10h29.58.663,EXNAT-2,2022.2.5,376.08846107097224,
1,0,1,0,,sich,#D292F3,None,None,None,None,0.19411954798852094,text_09,Reading_Baseline_main,262,,,,,,r,w,no,2023-03-24_10h29.58.663,EXNAT-2,2022.2.5,376.08846107097224,
1,0,1,0,,die,#F989A2,None,None,None,None,0.17262455300078727,text_09,Reading_Baseline_main,263,,,,,,r,w,no,2023-03-24_10h29.58.663,EXNAT-2,2022.2.5,376.08846107097224,
1,0,1,0,,Geschichte,#2AB7EF,None,None,None,None,0.18197776698798407,text_09,Reading_Baseline_main,264,,,,,,r,w,no,2023-03-24_10h29.58.663,EXNAT-2,2022.2.5,376.08846107097224,
1,0,1,0,,durch,#F989A2,None,None,None,None,0.16847488899657037,text_09,Reading_Baseline_main,265,,,,,,r,w,no,2023-03-24_10h29.58.663,EXNAT-2,2022.2.5,376.08846107097224,
1,0,1,0,,die,#88BA3F,None,None,None,None,0.18822617699333932,text_09,Reading_Baseline_main,266,,,,,,r,w,no,2023-03-24_10h29.58.663,EXNAT-2,2022.2.5,376.08846107097224,
1,0,1,0,,Ähnlichkeit,#F989A2,None,None,None,None,0.18012607499258593,text_09,Reading_Baseline_main,267,,,,,,r,w,no,2023-03-24_10h29.58.663,EXNAT-2,2022.2.5,376.08846107097224,
1,0,1,0,,der,#88BA3F,None,None,None,None,0.17441603900806513,text_09,Reading_Baseline_main,268,,,,,,r,w,no,2023-03-24_10h29.58.663,EXNAT-2,2022.2.5,376.08846107097224,
1,0,1,0,,Namen,#D292F3,None,None,None,None,0.1687694420106709,text_09,Reading_Baseline_main,269,,,,,,r,w,no,2023-03-24_10h29.58.663,EXNAT-2,2022.2.5,376.08846107097224,
1,0,1,0,,vielleicht,#88BA3F,None,None,None,None,0.1710621250094846,text_09,Reading_Baseline_main,270,,,,,,r,w,no,2023-03-24_10h29.58.663,EXNAT-2,2022.2.5,376.08846107097224,
1,0,1,0,,in,#2AB7EF,None,None,None,None,0.1754536500084214,text_09,Reading_Baseline_main,271,,,,,,r,w,no,2023-03-24_10h29.58.663,EXNAT-2,2022.2.5,376.08846107097224,
1,0,1,0,,Shakespeares,#D292F3,None,None,None,None,0.15500779399008024,text_09,Reading_Baseline_main,272,,,,,,r,w,no,2023-03-24_10h29.58.663,EXNAT-2,2022.2.5,376.08846107097224,
1,0,1,0,,Kopf,#2AB7EF,None,None,None,None,0.1809407620021375,text_09,Reading_Baseline_main,273,,,,,,r,w,no,2023-03-24_10h29.58.663,EXNAT-2,2022.2.5,376.08846107097224,
1,0,1,0,,verankert.",#2AB7EF,None,None,None,None,0.1915585259994259,text_09,Reading_Baseline_main,274,,,,,,r,w,no,2023-03-24_10h29.58.663,EXNAT-2,2022.2.5,376.08846107097224,
1,0,1,0,,Neben,#F989A2,None,None,None,None,0.36746264800603967,text_09,Reading_Baseline_main,275,,,,,,r,w,no,2023-03-24_10h29.58.663,EXNAT-2,2022.2.5,376.08846107097224,
1,0,1,0,,historischen,#D292F3,None,None,None,None,0.1290308290044777,text_09,Reading_Baseline_main,276,,,,,,r,w,no,2023-03-24_10h29.58.663,EXNAT-2,2022.2.5,376.08846107097224,
1,0,1,0,,Grundlagen,#F989A2,None,None,None,None,0.15945022899541073,text_09,Reading_Baseline_main,277,,,,,,r,w,no,2023-03-24_10h29.58.663,EXNAT-2,2022.2.5,376.08846107097224,
1,0,1,0,,seien,#88BA3F,None,None,None,None,0.16925672499928623,text_09,Reading_Baseline_main,278,,,,,,r,w,no,2023-03-24_10h29.58.663,EXNAT-2,2022.2.5,376.08846107097224,
1,0,1,0,,Shakespeares,#F989A2,None,None,None,None,0.14422313000250142,text_09,Reading_Baseline_main,279,,,,,,r,w,no,2023-03-24_10h29.58.663,EXNAT-2,2022.2.5,376.08846107097224,
1,0,1,0,,Stücke,#88BA3F,None,None,None,None,0.18836064600327518,text_09,Reading_Baseline_main,280,,,,,,r,w,no,2023-03-24_10h29.58.663,EXNAT-2,2022.2.5,376.08846107097224,
1,0,1,0,,auch,#2AB7EF,None,None,None,None,0.16596585400111508,text_09,Reading_Baseline_main,281,,,,,,r,w,no,2023-03-24_10h29.58.663,EXNAT-2,2022.2.5,376.08846107097224,
1,0,1,0,,von,#88BA3F,None,None,None,None,0.15673709500697441,text_09,Reading_Baseline_main,282,,,,,,r,w,no,2023-03-24_10h29.58.663,EXNAT-2,2022.2.5,376.08846107097224,
1,0,1,0,,Klatsch,#D292F3,None,None,None,None,0.16368120000697672,text_09,Reading_Baseline_main,283,,,,,,r,w,no,2023-03-24_10h29.58.663,EXNAT-2,2022.2.5,376.08846107097224,
1,0,1,0,,und,#F989A2,None,None,None,None,0.22618590299680363,text_09,Reading_Baseline_main,284,,,,,,r,w,no,2023-03-24_10h29.58.663,EXNAT-2,2022.2.5,376.08846107097224,
1,0,1,0,,Tratsch-Geschichten,#2AB7EF,None,None,None,None,0.19365382300748024,text_09,Reading_Baseline_main,285,,,,,,r,w,no,2023-03-24_10h29.58.663,EXNAT-2,2022.2.5,376.08846107097224,
1,0,1,0,,beeinflusst,#D292F3,None,None,None,None,0.3608749889972387,text_09,Reading_Baseline_main,286,,,,,,r,w,no,2023-03-24_10h29.58.663,EXNAT-2,2022.2.5,376.08846107097224,
1,0,1,0,,worden.,#2AB7EF,None,None,None,None,0.1642095310089644,text_09,Reading_Baseline_main,287,,,,,,r,w,no,2023-03-24_10h29.58.663,EXNAT-2,2022.2.5,376.08846107097224,
1,0,1,0,,Dazu,#D292F3,None,None,None,None,0.1767410030006431,text_09,Reading_Baseline_main,288,,,,,,r,w,no,2023-03-24_10h29.58.663,EXNAT-2,2022.2.5,376.08846107097224,
1,0,1,0,,könnte,#F989A2,None,None,None,None,0.17825736998929642,text_09,Reading_Baseline_main,289,,,,,,r,w,no,2023-03-24_10h29.58.663,EXNAT-2,2022.2.5,376.08846107097224,
1,0,1,0,,auch,#D292F3,None,None,None,None,0.17768665299809072,text_09,Reading_Baseline_main,290,,,,,,r,w,no,2023-03-24_10h29.58.663,EXNAT-2,2022.2.5,376.08846107097224,
1,0,1,0,,die,#2AB7EF,None,None,None,None,0.16845028998795897,text_09,Reading_Baseline_main,291,,,,,,r,w,no,2023-03-24_10h29.58.663,EXNAT-2,2022.2.5,376.08846107097224,
1,0,1,0,,Geschichte,#88BA3F,None,None,None,None,0.18362320099549834,text_09,Reading_Baseline_main,292,,,,,,r,w,no,2023-03-24_10h29.58.663,EXNAT-2,2022.2.5,376.08846107097224,
1,0,1,0,,über,#F989A2,None,None,None,None,0.4190518149989657,text_09,Reading_Baseline_main,293,,,,,,r,w,no,2023-03-24_10h29.58.663,EXNAT-2,2022.2.5,376.08846107097224,
1,0,1,0,,den,#2AB7EF,None,None,None,None,0.24473044600745197,text_09,Reading_Baseline_main,294,,,,,,r,w,no,2023-03-24_10h29.58.663,EXNAT-2,2022.2.5,376.08846107097224,
1,0,1,0,,Tod,#D292F3,None,None,None,None,0.2600878119992558,text_09,Reading_Baseline_main,295,,,,,,r,w,no,2023-03-24_10h29.58.663,EXNAT-2,2022.2.5,376.08846107097224,
1,0,1,0,,von,#88BA3F,None,None,None,None,0.26810165999631863,text_09,Reading_Baseline_main,296,,,,,,r,w,no,2023-03-24_10h29.58.663,EXNAT-2,2022.2.5,376.08846107097224,
1,0,1,0,,Jane,#D292F3,None,None,None,None,0.2986665669886861,text_09,Reading_Baseline_main,297,,,,,,r,w,no,2023-03-24_10h29.58.663,EXNAT-2,2022.2.5,376.08846107097224,
1,0,1,0,,Shaxspere,#88BA3F,None,None,None,None,0.5480927930038888,text_09,Reading_Baseline_main,298,,,,,,r,w,no,2023-03-24_10h29.58.663,EXNAT-2,2022.2.5,376.08846107097224,
1,0,1,0,,gezählt,#F989A2,None,None,None,None,0.35636730899568647,text_09,Reading_Baseline_main,299,,,,,,r,w,no,2023-03-24_10h29.58.663,EXNAT-2,2022.2.5,376.08846107097224,
1,0,1,0,,haben.,#2AB7EF,None,None,None,None,0.45192263400531374,text_09,Reading_Baseline_main,300,,,,,,r,w,no,2023-03-24_10h29.58.663,EXNAT-2,2022.2.5,376.08846107097224,
1,0,1,0,,,,,,,None,,text_09,Reading_Baseline_main,,Q1,a,False,,,r,w,no,2023-03-24_10h29.58.663,EXNAT-2,2022.2.5,376.08846107097224,
1,0,1,0,,,,,,,None,,text_09,Reading_Baseline_main,,Q2,None,False,,,r,w,no,2023-03-24_10h29.58.663,EXNAT-2,2022.2.5,376.08846107097224,
1,0,1,0,,,,,,,None,,text_09,Reading_Baseline_main,,Q3,None,False,,,r,w,no,2023-03-24_10h29.58.663,EXNAT-2,2022.2.5,376.08846107097224,
1,0,1,0,,,,,,,,,,,,,,,,,r,w,no,2023-03-24_10h29.58.663,EXNAT-2,2022.2.5,376.08846107097224,
2,0,2,0,,,#2AB7EF,None,None,None,None,0.5011991549981758,,click_training,1,,,,,,r,w,no,2023-03-24_10h29.58.663,EXNAT-2,2022.2.5,376.08846107097224,
2,0,2,0,,,#2AB7EF,None,None,None,None,0.25944648499717005,,click_training,2,,,,,,r,w,no,2023-03-24_10h29.58.663,EXNAT-2,2022.2.5,376.08846107097224,
2,0,2,0,,,#2AB7EF,None,None,None,None,0.22520309500396252,,click_training,3,,,,,,r,w,no,2023-03-24_10h29.58.663,EXNAT-2,2022.2.5,376.08846107097224,
2,0,2,0,,,#2AB7EF,None,None,None,None,0.6688264260010328,,click_training,4,,,,,,r,w,no,2023-03-24_10h29.58.663,EXNAT-2,2022.2.5,376.08846107097224,
2,0,2,0,,,#2AB7EF,None,None,None,None,0.27349094800592866,,click_training,5,,,,,,r,w,no,2023-03-24_10h29.58.663,EXNAT-2,2022.2.5,376.08846107097224,
2,0,2,0,,,#2AB7EF,None,None,None,None,0.44404417800251395,,click_training,6,,,,,,r,w,no,2023-03-24_10h29.58.663,EXNAT-2,2022.2.5,376.08846107097224,
2,0,2,0,,,#2AB7EF,None,None,None,None,0.5749136919912416,,2back_single_training1,1,,,,,,r,w,no,2023-03-24_10h29.58.663,EXNAT-2,2022.2.5,376.08846107097224,
2,0,2,0,,,#2AB7EF,None,None,None,None,0.2789112890022807,,2back_single_training1,2,,,,,,r,w,no,2023-03-24_10h29.58.663,EXNAT-2,2022.2.5,376.08846107097224,
2,0,2,0,,,#2AB7EF,None,None,None,None,0.22321982998983003,,2back_single_training1,3,,,,,,r,w,no,2023-03-24_10h29.58.663,EXNAT-2,2022.2.5,376.08846107097224,
2,0,2,0,,,#2AB7EF,None,None,None,None,0.20704453199869022,,2back_single_training1,4,,,,,,r,w,no,2023-03-24_10h29.58.663,EXNAT-2,2022.2.5,376.08846107097224,
2,0,2,0,,,#2AB7EF,None,None,None,None,0.23302992299431935,,2back_single_training1,5,,,,,,r,w,no,2023-03-24_10h29.58.663,EXNAT-2,2022.2.5,376.08846107097224,
2,0,2,0,,,#2AB7EF,None,None,None,None,0.23226362599234562,,2back_single_training1,6,,,,,,r,w,no,2023-03-24_10h29.58.663,EXNAT-2,2022.2.5,376.08846107097224,
2,0,2,0,,,#2AB7EF,None,None,None,None,0.2084894349973183,,2back_single_training1,7,,,,,,r,w,no,2023-03-24_10h29.58.663,EXNAT-2,2022.2.5,376.08846107097224,
2,0,2,0,,,#2AB7EF,None,None,None,None,0.2163085369975306,,2back_single_training1,8,,,,,,r,w,no,2023-03-24_10h29.58.663,EXNAT-2,2022.2.5,376.08846107097224,
2,0,2,0,,,#2AB7EF,None,None,None,None,0.21258115100499708,,2back_single_training1,9,,,,,,r,w,no,2023-03-24_10h29.58.663,EXNAT-2,2022.2.5,376.08846107097224,
2,0,2,0,,,#2AB7EF,None,None,None,None,0.19938584399642423,,2back_single_training1,10,,,,,,r,w,no,2023-03-24_10h29.58.663,EXNAT-2,2022.2.5,376.08846107097224,
2,0,2,0,,,#2AB7EF,None,None,None,None,0.19701712198730092,,2back_single_training1,11,,,,,,r,w,no,2023-03-24_10h29.58.663,EXNAT-2,2022.2.5,376.08846107097224,
2,0,2,0,,,#2AB7EF,None,None,None,None,0.19635606800147798,,2back_single_training1,12,,,,,,r,w,no,2023-03-24_10h29.58.663,EXNAT-2,2022.2.5,376.08846107097224,
2,0,2,0,,,#2AB7EF,None,None,None,None,0.19317015499109402,,2back_single_training1,13,,,,,,r,w,no,2023-03-24_10h29.58.663,EXNAT-2,2022.2.5,376.08846107097224,
2,0,2,0,,,#2AB7EF,None,None,None,None,0.2034713300090516,,2back_single_training1,14,,,,,,r,w,no,2023-03-24_10h29.58.663,EXNAT-2,2022.2.5,376.08846107097224,
2,0,2,0,,,#2AB7EF,None,None,None,None,0.18867372599197552,,2back_single_training1,15,,,,,,r,w,no,2023-03-24_10h29.58.663,EXNAT-2,2022.2.5,376.08846107097224,
2,0,2,0,,,#2AB7EF,None,None,None,None,0.19523820299946237,,2back_single_training1,16,,,,,,r,w,no,2023-03-24_10h29.58.663,EXNAT-2,2022.2.5,376.08846107097224,
2,0,2,0,,,#2AB7EF,None,None,None,None,0.1838544640049804,,2back_single_training1,17,,,,,,r,w,no,2023-03-24_10h29.58.663,EXNAT-2,2022.2.5,376.08846107097224,
2,0,2,0,,,#2AB7EF,None,None,None,None,0.1921562509960495,,2back_single_training1,18,,,,,,r,w,no,2023-03-24_10h29.58.663,EXNAT-2,2022.2.5,376.08846107097224,
2,0,2,0,,,#2AB7EF,None,None,None,None,0.1864352420088835,,2back_single_training1,19,,,,,,r,w,no,2023-03-24_10h29.58.663,EXNAT-2,2022.2.5,376.08846107097224,
2,0,2,0,,,#2AB7EF,None,None,None,None,0.19085681000433397,,2back_single_training1,20,,,,,,r,w,no,2023-03-24_10h29.58.663,EXNAT-2,2022.2.5,376.08846107097224,
2,0,2,0,,,#2AB7EF,None,None,None,None,0.6762175629992271,,2back_single_main,1,,,,,,r,w,no,2023-03-24_10h29.58.663,EXNAT-2,2022.2.5,376.08846107097224,
2,0,2,0,,,#2AB7EF,None,None,None,None,0.7495540370000526,,2back_single_main,2,,,,,,r,w,no,2023-03-24_10h29.58.663,EXNAT-2,2022.2.5,376.08846107097224,
2,0,2,0,,,#2AB7EF,None,None,None,None,0.17823285299527925,,2back_single_main,3,,,,,,r,w,no,2023-03-24_10h29.58.663,EXNAT-2,2022.2.5,376.08846107097224,
2,0,2,0,,,#2AB7EF,None,None,None,None,0.16816178300359752,,2back_single_main,4,,,,,,r,w,no,2023-03-24_10h29.58.663,EXNAT-2,2022.2.5,376.08846107097224,
2,0,2,0,,,#2AB7EF,None,None,None,None,0.15343509199738037,,2back_single_main,5,,,,,,r,w,no,2023-03-24_10h29.58.663,EXNAT-2,2022.2.5,376.08846107097224,
2,0,2,0,,,#2AB7EF,None,None,None,None,0.15781341200636234,,2back_single_main,6,,,,,,r,w,no,2023-03-24_10h29.58.663,EXNAT-2,2022.2.5,376.08846107097224,
2,0,2,0,,,#2AB7EF,None,None,None,None,0.4310997540014796,,2back_single_main,7,,,,,,r,w,no,2023-03-24_10h29.58.663,EXNAT-2,2022.2.5,376.08846107097224,
2,0,2,0,,,#2AB7EF,None,None,None,None,0.14338794701325241,,2back_single_main,8,,,,,,r,w,no,2023-03-24_10h29.58.663,EXNAT-2,2022.2.5,376.08846107097224,
2,0,2,0,,,#2AB7EF,None,None,None,None,0.38949428498744965,,2back_single_main,9,,,,,,r,w,no,2023-03-24_10h29.58.663,EXNAT-2,2022.2.5,376.08846107097224,
2,0,2,0,,,#2AB7EF,None,None,None,None,0.16310710400284734,,2back_single_main,10,,,,,,r,w,no,2023-03-24_10h29.58.663,EXNAT-2,2022.2.5,376.08846107097224,
2,0,2,0,,,#2AB7EF,None,None,None,None,0.16129840099893045,,2back_single_main,11,,,,,,r,w,no,2023-03-24_10h29.58.663,EXNAT-2,2022.2.5,376.08846107097224,
2,0,2,0,,,#2AB7EF,None,None,None,None,0.15744744500261731,,2back_single_main,12,,,,,,r,w,no,2023-03-24_10h29.58.663,EXNAT-2,2022.2.5,376.08846107097224,
2,0,2,0,,,#2AB7EF,None,None,None,None,0.5188258410053095,,2back_single_main,13,,,,,,r,w,no,2023-03-24_10h29.58.663,EXNAT-2,2022.2.5,376.08846107097224,
2,0,2,0,,,#2AB7EF,None,None,None,None,0.15412346000084653,,2back_single_main,14,,,,,,r,w,no,2023-03-24_10h29.58.663,EXNAT-2,2022.2.5,376.08846107097224,
2,0,2,0,,,#2AB7EF,None,None,None,None,0.1502485480014002,,2back_single_main,15,,,,,,r,w,no,2023-03-24_10h29.58.663,EXNAT-2,2022.2.5,376.08846107097224,
2,0,2,0,,,#2AB7EF,None,None,None,None,0.38424654499976896,,2back_single_main,16,,,,,,r,w,no,2023-03-24_10h29.58.663,EXNAT-2,2022.2.5,376.08846107097224,
2,0,2,0,,,#2AB7EF,None,None,None,None,0.1383182739955373,,2back_single_main,17,,,,,,r,w,no,2023-03-24_10h29.58.663,EXNAT-2,2022.2.5,376.08846107097224,
2,0,2,0,,,#2AB7EF,None,None,None,None,0.16825949199846946,,2back_single_main,18,,,,,,r,w,no,2023-03-24_10h29.58.663,EXNAT-2,2022.2.5,376.08846107097224,
2,0,2,0,,,#2AB7EF,None,None,None,None,0.15745843600598164,,2back_single_main,19,,,,,,r,w,no,2023-03-24_10h29.58.663,EXNAT-2,2022.2.5,376.08846107097224,
2,0,2,0,,,#2AB7EF,None,None,None,None,0.15341430398984812,,2back_single_main,20,,,,,,r,w,no,2023-03-24_10h29.58.663,EXNAT-2,2022.2.5,376.08846107097224,
2,0,2,0,,,#2AB7EF,None,None,None,None,0.37123289599549025,,2back_single_main,21,,,,,,r,w,no,2023-03-24_10h29.58.663,EXNAT-2,2022.2.5,376.08846107097224,
2,0,2,0,,,#2AB7EF,None,None,None,None,0.16067577799549326,,2back_single_main,22,,,,,,r,w,no,2023-03-24_10h29.58.663,EXNAT-2,2022.2.5,376.08846107097224,
2,0,2,0,,,#2AB7EF,None,None,None,None,0.1613101820112206,,2back_single_main,23,,,,,,r,w,no,2023-03-24_10h29.58.663,EXNAT-2,2022.2.5,376.08846107097224,
2,0,2,0,,,#2AB7EF,None,None,None,None,0.1514390919910511,,2back_single_main,24,,,,,,r,w,no,2023-03-24_10h29.58.663,EXNAT-2,2022.2.5,376.08846107097224,
2,0,2,0,,,#2AB7EF,None,None,None,None,0.15299175599648152,,2back_single_main,25,,,,,,r,w,no,2023-03-24_10h29.58.663,EXNAT-2,2022.2.5,376.08846107097224,
2,0,2,0,,,#2AB7EF,None,None,None,None,0.15944769600173458,,2back_single_main,26,,,,,,r,w,no,2023-03-24_10h29.58.663,EXNAT-2,2022.2.5,376.08846107097224,
2,0,2,0,,,#2AB7EF,None,None,None,None,0.1730430480092764,,2back_single_main,27,,,,,,r,w,no,2023-03-24_10h29.58.663,EXNAT-2,2022.2.5,376.08846107097224,
2,0,2,0,,,#2AB7EF,None,None,None,None,0.6357990480028093,,2back_single_main,28,,,,,,r,w,no,2023-03-24_10h29.58.663,EXNAT-2,2022.2.5,376.08846107097224,
2,0,2,0,,,#2AB7EF,None,None,None,None,0.16652321499714162,,2back_single_main,29,,,,,,r,w,no,2023-03-24_10h29.58.663,EXNAT-2,2022.2.5,376.08846107097224,
2,0,2,0,,,#2AB7EF,None,None,None,None,0.16862237200257368,,2back_single_main,30,,,,,,r,w,no,2023-03-24_10h29.58.663,EXNAT-2,2022.2.5,376.08846107097224,
2,0,2,0,,,#2AB7EF,None,None,None,None,0.1645367199962493,,2back_single_main,31,,,,,,r,w,no,2023-03-24_10h29.58.663,EXNAT-2,2022.2.5,376.08846107097224,
2,0,2,0,,,#2AB7EF,None,None,None,None,0.359154137011501,,2back_single_main,32,,,,,,r,w,no,2023-03-24_10h29.58.663,EXNAT-2,2022.2.5,376.08846107097224,
2,0,2,0,,,#2AB7EF,None,None,None,None,0.152390210001613,,2back_single_main,33,,,,,,r,w,no,2023-03-24_10h29.58.663,EXNAT-2,2022.2.5,376.08846107097224,
2,0,2,0,,,#2AB7EF,None,None,None,None,0.17395970900543034,,2back_single_main,34,,,,,,r,w,no,2023-03-24_10h29.58.663,EXNAT-2,2022.2.5,376.08846107097224,
2,0,2,0,,,#2AB7EF,None,None,None,None,0.33262969499628525,,2back_single_main,35,,,,,,r,w,no,2023-03-24_10h29.58.663,EXNAT-2,2022.2.5,376.08846107097224,
2,0,2,0,,,#2AB7EF,None,None,None,None,0.2608862969937036,,2back_single_main,36,,,,,,r,w,no,2023-03-24_10h29.58.663,EXNAT-2,2022.2.5,376.08846107097224,
2,0,2,0,,,#2AB7EF,None,None,None,None,0.17850055900635198,,2back_single_main,37,,,,,,r,w,no,2023-03-24_10h29.58.663,EXNAT-2,2022.2.5,376.08846107097224,
2,0,2,0,,,#2AB7EF,None,None,None,None,0.16014578400063328,,2back_single_main,38,,,,,,r,w,no,2023-03-24_10h29.58.663,EXNAT-2,2022.2.5,376.08846107097224,
2,0,2,0,,,#2AB7EF,None,None,None,None,0.16699510099715553,,2back_single_main,39,,,,,,r,w,no,2023-03-24_10h29.58.663,EXNAT-2,2022.2.5,376.08846107097224,
2,0,2,0,,,#2AB7EF,None,None,None,None,0.199845135997748,,2back_single_main,40,,,,,,r,w,no,2023-03-24_10h29.58.663,EXNAT-2,2022.2.5,376.08846107097224,
2,0,2,0,,,#2AB7EF,None,None,None,None,0.3637427909998223,,2back_single_main,41,,,,,,r,w,no,2023-03-24_10h29.58.663,EXNAT-2,2022.2.5,376.08846107097224,
2,0,2,0,,,#2AB7EF,None,None,None,None,0.17134923599951435,,2back_single_main,42,,,,,,r,w,no,2023-03-24_10h29.58.663,EXNAT-2,2022.2.5,376.08846107097224,
2,0,2,0,,,#2AB7EF,None,None,None,None,0.19677036500070244,,2back_single_main,43,,,,,,r,w,no,2023-03-24_10h29.58.663,EXNAT-2,2022.2.5,376.08846107097224,
2,0,2,0,,,#2AB7EF,None,None,None,None,0.15693529299460351,,2back_single_main,44,,,,,,r,w,no,2023-03-24_10h29.58.663,EXNAT-2,2022.2.5,376.08846107097224,
2,0,2,0,,,#2AB7EF,None,None,None,None,0.18235858700063545,,2back_single_main,45,,,,,,r,w,no,2023-03-24_10h29.58.663,EXNAT-2,2022.2.5,376.08846107097224,
2,0,2,0,,,#2AB7EF,None,None,None,None,0.5017194829997607,,2back_single_main,46,,,,,,r,w,no,2023-03-24_10h29.58.663,EXNAT-2,2022.2.5,376.08846107097224,
2,0,2,0,,,#2AB7EF,None,None,None,None,0.1701743110024836,,2back_single_main,47,,,,,,r,w,no,2023-03-24_10h29.58.663,EXNAT-2,2022.2.5,376.08846107097224,
2,0,2,0,,,#2AB7EF,None,None,None,None,0.18947604700224474,,2back_single_main,48,,,,,,r,w,no,2023-03-24_10h29.58.663,EXNAT-2,2022.2.5,376.08846107097224,
2,0,2,0,,,#2AB7EF,None,None,None,None,0.18439020100049675,,2back_single_main,49,,,,,,r,w,no,2023-03-24_10h29.58.663,EXNAT-2,2022.2.5,376.08846107097224,
2,0,2,0,,,#2AB7EF,None,None,None,None,0.44114471699867863,,2back_single_main,50,,,,,,r,w,no,2023-03-24_10h29.58.663,EXNAT-2,2022.2.5,376.08846107097224,
2,0,2,0,,,#2AB7EF,None,None,None,None,0.18388370699540246,,2back_single_main,51,,,,,,r,w,no,2023-03-24_10h29.58.663,EXNAT-2,2022.2.5,376.08846107097224,
2,0,2,0,,,#2AB7EF,None,None,None,None,0.18498440099938307,,2back_single_main,52,,,,,,r,w,no,2023-03-24_10h29.58.663,EXNAT-2,2022.2.5,376.08846107097224,
2,0,2,0,,,#2AB7EF,None,None,None,None,0.3432653490017401,,2back_single_main,53,,,,,,r,w,no,2023-03-24_10h29.58.663,EXNAT-2,2022.2.5,376.08846107097224,
2,0,2,0,,,#2AB7EF,None,None,None,None,0.44241678999969736,,2back_single_main,54,,,,,,r,w,no,2023-03-24_10h29.58.663,EXNAT-2,2022.2.5,376.08846107097224,
2,0,2,0,,,#2AB7EF,None,None,None,None,0.4068636910087662,,2back_single_main,55,,,,,,r,w,no,2023-03-24_10h29.58.663,EXNAT-2,2022.2.5,376.08846107097224,
2,0,2,0,,,#2AB7EF,None,None,None,None,0.436207247999846,,2back_single_main,56,,,,,,r,w,no,2023-03-24_10h29.58.663,EXNAT-2,2022.2.5,376.08846107097224,
2,0,2,0,,,#2AB7EF,None,None,None,None,0.4299252990022069,,2back_single_main,57,,,,,,r,w,no,2023-03-24_10h29.58.663,EXNAT-2,2022.2.5,376.08846107097224,
2,0,2,0,,,#2AB7EF,None,None,None,None,0.4273437899973942,,2back_single_main,58,,,,,,r,w,no,2023-03-24_10h29.58.663,EXNAT-2,2022.2.5,376.08846107097224,
2,0,2,0,,,#2AB7EF,None,None,None,None,0.3467715610022424,,2back_single_main,59,,,,,,r,w,no,2023-03-24_10h29.58.663,EXNAT-2,2022.2.5,376.08846107097224,
2,0,2,0,,,#2AB7EF,None,None,None,None,0.4118094769946765,,2back_single_main,60,,,,,,r,w,no,2023-03-24_10h29.58.663,EXNAT-2,2022.2.5,376.08846107097224,
2,0,2,0,,Sie,#D292F3,None,None,None,None,0.6492907620122423,text_03,2back_dual_main,1,,,,,,r,w,no,2023-03-24_10h29.58.663,EXNAT-2,2022.2.5,376.08846107097224,
2,0,2,0,,besuchte,#F989A2,None,None,None,None,0.19051423399650957,text_03,2back_dual_main,2,,,,,,r,w,no,2023-03-24_10h29.58.663,EXNAT-2,2022.2.5,376.08846107097224,
2,0,2,0,,ihn,#F989A2,None,None,None,None,0.1676797300024191,text_03,2back_dual_main,3,,,,,,r,w,no,2023-03-24_10h29.58.663,EXNAT-2,2022.2.5,376.08846107097224,
2,0,2,0,,oft,#2AB7EF,None,None,None,None,0.15738258200872224,text_03,2back_dual_main,4,,,,,,r,w,no,2023-03-24_10h29.58.663,EXNAT-2,2022.2.5,376.08846107097224,
2,0,2,0,,in,#2AB7EF,None,None,None,None,0.17936565600393806,text_03,2back_dual_main,5,,,,,,r,w,no,2023-03-24_10h29.58.663,EXNAT-2,2022.2.5,376.08846107097224,
2,0,2,0,,seinem,#2AB7EF,None,None,None,None,0.16372393300116528,text_03,2back_dual_main,6,,,,,,r,w,no,2023-03-24_10h29.58.663,EXNAT-2,2022.2.5,376.08846107097224,
2,0,2,0,,Haus,#88BA3F,None,None,None,None,0.16633883000758942,text_03,2back_dual_main,7,,,,,,r,w,no,2023-03-24_10h29.58.663,EXNAT-2,2022.2.5,376.08846107097224,
2,0,2,0,,und,#D292F3,None,None,None,None,0.16897294099908322,text_03,2back_dual_main,8,,,,,,r,w,no,2023-03-24_10h29.58.663,EXNAT-2,2022.2.5,376.08846107097224,
2,0,2,0,,bekam,#88BA3F,None,None,None,None,0.16117665299680084,text_03,2back_dual_main,9,,,,,,r,w,no,2023-03-24_10h29.58.663,EXNAT-2,2022.2.5,376.08846107097224,
2,0,2,0,,Briefe,#D292F3,None,None,None,None,0.1666639379982371,text_03,2back_dual_main,10,,,,,,r,w,no,2023-03-24_10h29.58.663,EXNAT-2,2022.2.5,376.08846107097224,
2,0,2,0,,und,#F989A2,None,None,None,None,0.15696818100695964,text_03,2back_dual_main,11,,,,,,r,w,no,2023-03-24_10h29.58.663,EXNAT-2,2022.2.5,376.08846107097224,
2,0,2,0,,Gedichte,#88BA3F,None,None,None,None,0.17395399301312864,text_03,2back_dual_main,12,,,,,,r,w,no,2023-03-24_10h29.58.663,EXNAT-2,2022.2.5,376.08846107097224,
2,0,2,0,,von,#F989A2,None,None,None,None,0.1562380480027059,text_03,2back_dual_main,13,,,,,,r,w,no,2023-03-24_10h29.58.663,EXNAT-2,2022.2.5,376.08846107097224,
2,0,2,0,,ihm.,#2AB7EF,None,None,None,None,0.14607076300308108,text_03,2back_dual_main,14,,,,,,r,w,no,2023-03-24_10h29.58.663,EXNAT-2,2022.2.5,376.08846107097224,
2,0,2,0,,Manchmal,#F989A2,None,None,None,None,0.1867497729981551,text_03,2back_dual_main,15,,,,,,r,w,no,2023-03-24_10h29.58.663,EXNAT-2,2022.2.5,376.08846107097224,
2,0,2,0,,durfte,#F989A2,None,None,None,None,0.1685926039936021,text_03,2back_dual_main,16,,,,,,r,w,no,2023-03-24_10h29.58.663,EXNAT-2,2022.2.5,376.08846107097224,
2,0,2,0,,sie,#2AB7EF,None,None,None,None,0.1612916279991623,text_03,2back_dual_main,17,,,,,,r,w,no,2023-03-24_10h29.58.663,EXNAT-2,2022.2.5,376.08846107097224,
2,0,2,0,,ihm,#D292F3,None,None,None,None,0.15839806199073792,text_03,2back_dual_main,18,,,,,,r,w,no,2023-03-24_10h29.58.663,EXNAT-2,2022.2.5,376.08846107097224,
2,0,2,0,,sogar,#88BA3F,None,None,None,None,0.17047611900488846,text_03,2back_dual_main,19,,,,,,r,w,no,2023-03-24_10h29.58.663,EXNAT-2,2022.2.5,376.08846107097224,
2,0,2,0,,die,#2AB7EF,None,None,None,None,0.167650693008909,text_03,2back_dual_main,20,,,,,,r,w,no,2023-03-24_10h29.58.663,EXNAT-2,2022.2.5,376.08846107097224,
2,0,2,0,,Haare,#D292F3,None,None,None,None,0.15794653199554887,text_03,2back_dual_main,21,,,,,,r,w,no,2023-03-24_10h29.58.663,EXNAT-2,2022.2.5,376.08846107097224,
2,0,2,0,,schneiden.,#88BA3F,None,None,None,None,0.16496452900173608,text_03,2back_dual_main,22,,,,,,r,w,no,2023-03-24_10h29.58.663,EXNAT-2,2022.2.5,376.08846107097224,
2,0,2,0,,Johanna,#88BA3F,None,None,None,None,0.1657454069936648,text_03,2back_dual_main,23,,,,,,r,w,no,2023-03-24_10h29.58.663,EXNAT-2,2022.2.5,376.08846107097224,
