blocks.thisRepN,blocks.thisTrialN,blocks.thisN,blocks.thisIndex,empty_placeholder.started,word,colour,target,nback_response,nback_RT,block_kind,duration,text_nr,block_nr,trial_nr,participant,age,handedness,gender,testing_mode,date,expName,psychopyVersion,frameRate,
0,0,0,0,15.483448535000207,Auf,#88BA3F,None,None,None,None,0.6311687679990428,reading_bl_training_text,Reading_Baseline_training,1,,,r,w,no,2023-03-24_10h23.16.823,EXNAT-2,2022.2.5,375.9614743478901,
0,0,0,0,,dem,#88BA3F,None,None,None,None,0.25367945501056965,reading_bl_training_text,Reading_Baseline_training,2,,,r,w,no,2023-03-24_10h23.16.823,EXNAT-2,2022.2.5,375.9614743478901,
0,0,0,0,,großen,#F989A2,None,None,None,None,0.20148756699927617,reading_bl_training_text,Reading_Baseline_training,3,,,r,w,no,2023-03-24_10h23.16.823,EXNAT-2,2022.2.5,375.9614743478901,
0,0,0,0,,"Passagierdampfer,",#2AB7EF,None,None,None,None,0.4092244670027867,reading_bl_training_text,Reading_Baseline_training,4,,,r,w,no,2023-03-24_10h23.16.823,EXNAT-2,2022.2.5,375.9614743478901,
0,0,0,0,,der,#D292F3,None,None,None,None,0.3887696239980869,reading_bl_training_text,Reading_Baseline_training,5,,,r,w,no,2023-03-24_10h23.16.823,EXNAT-2,2022.2.5,375.9614743478901,
0,0,0,0,,um,#D292F3,None,None,None,None,0.35844231500232127,reading_bl_training_text,Reading_Baseline_training,6,,,r,w,no,2023-03-24_10h23.16.823,EXNAT-2,2022.2.5,375.9614743478901,
0,0,0,0,,Mitternacht,#F989A2,None,None,None,None,0.3749394220067188,reading_bl_training_text,Reading_Baseline_training,7,,,r,w,no,2023-03-24_10h23.16.823,EXNAT-2,2022.2.5,375.9614743478901,
0,0,0,0,,von,#D292F3,None,None,None,None,0.3732647709985031,reading_bl_training_text,Reading_Baseline_training,8,,,r,w,no,2023-03-24_10h23.16.823,EXNAT-2,2022.2.5,375.9614743478901,
0,0,0,0,,New,#F989A2,None,None,None,None,0.33624725400295574,reading_bl_training_text,Reading_Baseline_training,9,,,r,w,no,2023-03-24_10h23.16.823,EXNAT-2,2022.2.5,375.9614743478901,
0,0,0,0,,York,#2AB7EF,None,None,None,None,0.3603800010023406,reading_bl_training_text,Reading_Baseline_training,10,,,r,w,no,2023-03-24_10h23.16.823,EXNAT-2,2022.2.5,375.9614743478901,
0,0,0,0,,nach,#88BA3F,None,None,None,None,0.3267633469949942,reading_bl_training_text,Reading_Baseline_training,11,,,r,w,no,2023-03-24_10h23.16.823,EXNAT-2,2022.2.5,375.9614743478901,
0,0,0,0,,Buenos,#2AB7EF,None,None,None,None,0.3433159970009001,reading_bl_training_text,Reading_Baseline_training,12,,,r,w,no,2023-03-24_10h23.16.823,EXNAT-2,2022.2.5,375.9614743478901,
0,0,0,0,,Aires,#2AB7EF,None,None,None,None,0.3489430199988419,reading_bl_training_text,Reading_Baseline_training,13,,,r,w,no,2023-03-24_10h23.16.823,EXNAT-2,2022.2.5,375.9614743478901,
0,0,0,0,,abgehen,#88BA3F,None,None,None,None,0.3299391309992643,reading_bl_training_text,Reading_Baseline_training,14,,,r,w,no,2023-03-24_10h23.16.823,EXNAT-2,2022.2.5,375.9614743478901,
0,0,0,0,,"sollte,",#D292F3,None,None,None,None,0.335558751001372,reading_bl_training_text,Reading_Baseline_training,15,,,r,w,no,2023-03-24_10h23.16.823,EXNAT-2,2022.2.5,375.9614743478901,
0,0,0,0,,herrschte,#F989A2,None,None,None,None,0.32881571899633855,reading_bl_training_text,Reading_Baseline_training,16,,,r,w,no,2023-03-24_10h23.16.823,EXNAT-2,2022.2.5,375.9614743478901,
0,0,0,0,,die,#F989A2,None,None,None,None,0.3517529039963847,reading_bl_training_text,Reading_Baseline_training,17,,,r,w,no,2023-03-24_10h23.16.823,EXNAT-2,2022.2.5,375.9614743478901,
0,0,0,0,,übliche,#88BA3F,None,None,None,None,0.30288487300276756,reading_bl_training_text,Reading_Baseline_training,18,,,r,w,no,2023-03-24_10h23.16.823,EXNAT-2,2022.2.5,375.9614743478901,
0,0,0,0,,Geschäftigkeit,#F989A2,None,None,None,None,0.34388409499661066,reading_bl_training_text,Reading_Baseline_training,19,,,r,w,no,2023-03-24_10h23.16.823,EXNAT-2,2022.2.5,375.9614743478901,
0,0,0,0,,und,#88BA3F,None,None,None,None,0.31420601799618453,reading_bl_training_text,Reading_Baseline_training,20,,,r,w,no,2023-03-24_10h23.16.823,EXNAT-2,2022.2.5,375.9614743478901,
0,0,0,0,,Bewegung,#2AB7EF,None,None,None,None,0.3188770989945624,reading_bl_training_text,Reading_Baseline_training,21,,,r,w,no,2023-03-24_10h23.16.823,EXNAT-2,2022.2.5,375.9614743478901,
0,0,0,0,,der,#D292F3,None,None,None,None,0.31723346300714184,reading_bl_training_text,Reading_Baseline_training,22,,,r,w,no,2023-03-24_10h23.16.823,EXNAT-2,2022.2.5,375.9614743478901,
0,0,0,0,,letzten,#2AB7EF,None,None,None,None,0.28978125999856275,reading_bl_training_text,Reading_Baseline_training,23,,,r,w,no,2023-03-24_10h23.16.823,EXNAT-2,2022.2.5,375.9614743478901,
0,0,0,0,,Stunde.,#D292F3,None,None,None,None,0.29087663600512315,reading_bl_training_text,Reading_Baseline_training,24,,,r,w,no,2023-03-24_10h23.16.823,EXNAT-2,2022.2.5,375.9614743478901,
0,0,0,0,,Gäste,#88BA3F,None,None,None,None,0.3163180160045158,reading_bl_training_text,Reading_Baseline_training,25,,,r,w,no,2023-03-24_10h23.16.823,EXNAT-2,2022.2.5,375.9614743478901,
0,0,0,0,,vom,#88BA3F,None,None,None,None,0.28436466000857763,reading_bl_training_text,Reading_Baseline_training,26,,,r,w,no,2023-03-24_10h23.16.823,EXNAT-2,2022.2.5,375.9614743478901,
0,0,0,0,,Land,#D292F3,None,None,None,None,0.2837166070094099,reading_bl_training_text,Reading_Baseline_training,27,,,r,w,no,2023-03-24_10h23.16.823,EXNAT-2,2022.2.5,375.9614743478901,
0,0,0,0,,drängten,#D292F3,None,None,None,None,0.30926392899709754,reading_bl_training_text,Reading_Baseline_training,28,,,r,w,no,2023-03-24_10h23.16.823,EXNAT-2,2022.2.5,375.9614743478901,
0,0,0,0,,"durcheinander,",#88BA3F,None,None,None,None,0.3123031550057931,reading_bl_training_text,Reading_Baseline_training,29,,,r,w,no,2023-03-24_10h23.16.823,EXNAT-2,2022.2.5,375.9614743478901,
0,0,0,0,,um,#F989A2,None,None,None,None,0.31664603800163604,reading_bl_training_text,Reading_Baseline_training,30,,,r,w,no,2023-03-24_10h23.16.823,EXNAT-2,2022.2.5,375.9614743478901,
0,0,0,0,,ihren,#2AB7EF,None,None,None,None,1.0598002040060237,reading_bl_training_text,Reading_Baseline_training,31,,,r,w,no,2023-03-24_10h23.16.823,EXNAT-2,2022.2.5,375.9614743478901,
0,0,0,0,,Freunden,#2AB7EF,None,None,None,None,0.4654191930021625,reading_bl_training_text,Reading_Baseline_training,32,,,r,w,no,2023-03-24_10h23.16.823,EXNAT-2,2022.2.5,375.9614743478901,
0,0,0,0,,das,#D292F3,None,None,None,None,0.5739350539952284,reading_bl_training_text,Reading_Baseline_training,33,,,r,w,no,2023-03-24_10h23.16.823,EXNAT-2,2022.2.5,375.9614743478901,
0,0,0,0,,Geleit,#2AB7EF,None,None,None,None,0.5565690379880834,reading_bl_training_text,Reading_Baseline_training,34,,,r,w,no,2023-03-24_10h23.16.823,EXNAT-2,2022.2.5,375.9614743478901,
0,0,0,0,,zu,#F989A2,None,None,None,None,0.44656900499830954,reading_bl_training_text,Reading_Baseline_training,35,,,r,w,no,2023-03-24_10h23.16.823,EXNAT-2,2022.2.5,375.9614743478901,
0,0,0,0,,"geben,",#F989A2,None,None,None,None,0.535242723999545,reading_bl_training_text,Reading_Baseline_training,36,,,r,w,no,2023-03-24_10h23.16.823,EXNAT-2,2022.2.5,375.9614743478901,
0,0,0,0,,Telegraphenboys,#88BA3F,None,None,None,None,1.4733674080052879,reading_bl_training_text,Reading_Baseline_training,37,,,r,w,no,2023-03-24_10h23.16.823,EXNAT-2,2022.2.5,375.9614743478901,
0,0,0,0,,mit,#88BA3F,None,None,None,None,0.525550980004482,reading_bl_training_text,Reading_Baseline_training,38,,,r,w,no,2023-03-24_10h23.16.823,EXNAT-2,2022.2.5,375.9614743478901,
0,0,0,0,,schiefen,#2AB7EF,None,None,None,None,0.4597404959931737,reading_bl_training_text,Reading_Baseline_training,39,,,r,w,no,2023-03-24_10h23.16.823,EXNAT-2,2022.2.5,375.9614743478901,
0,0,0,0,,Mützen,#F989A2,None,None,None,None,0.4445969850057736,reading_bl_training_text,Reading_Baseline_training,40,,,r,w,no,2023-03-24_10h23.16.823,EXNAT-2,2022.2.5,375.9614743478901,
0,0,0,0,,schossen,#D292F3,None,None,None,None,0.47518588999810163,reading_bl_training_text,Reading_Baseline_training,41,,,r,w,no,2023-03-24_10h23.16.823,EXNAT-2,2022.2.5,375.9614743478901,
0,0,0,0,,Namen,#2AB7EF,None,None,None,None,0.4855442549887812,reading_bl_training_text,Reading_Baseline_training,42,,,r,w,no,2023-03-24_10h23.16.823,EXNAT-2,2022.2.5,375.9614743478901,
0,0,0,0,,ausrufend,#D292F3,None,None,None,None,0.45222912600729614,reading_bl_training_text,Reading_Baseline_training,43,,,r,w,no,2023-03-24_10h23.16.823,EXNAT-2,2022.2.5,375.9614743478901,
0,0,0,0,,durch,#F989A2,None,None,None,None,0.44116750500688795,reading_bl_training_text,Reading_Baseline_training,44,,,r,w,no,2023-03-24_10h23.16.823,EXNAT-2,2022.2.5,375.9614743478901,
0,0,0,0,,die,#F989A2,None,None,None,None,0.4327611270127818,reading_bl_training_text,Reading_Baseline_training,45,,,r,w,no,2023-03-24_10h23.16.823,EXNAT-2,2022.2.5,375.9614743478901,
0,0,0,0,,"Gesellschaftsräume,",#2AB7EF,None,None,None,None,0.4517390399996657,reading_bl_training_text,Reading_Baseline_training,46,,,r,w,no,2023-03-24_10h23.16.823,EXNAT-2,2022.2.5,375.9614743478901,
0,0,0,0,,Koffer,#88BA3F,None,None,None,None,0.44548764600767754,reading_bl_training_text,Reading_Baseline_training,47,,,r,w,no,2023-03-24_10h23.16.823,EXNAT-2,2022.2.5,375.9614743478901,
0,0,0,0,,und,#D292F3,None,None,None,None,0.40830167300009634,reading_bl_training_text,Reading_Baseline_training,48,,,r,w,no,2023-03-24_10h23.16.823,EXNAT-2,2022.2.5,375.9614743478901,
0,0,0,0,,Blumen,#88BA3F,None,None,None,None,0.46333139899070375,reading_bl_training_text,Reading_Baseline_training,49,,,r,w,no,2023-03-24_10h23.16.823,EXNAT-2,2022.2.5,375.9614743478901,
0,0,0,0,,wurden,#2AB7EF,None,None,None,None,0.4541572659945814,reading_bl_training_text,Reading_Baseline_training,50,,,r,w,no,2023-03-24_10h23.16.823,EXNAT-2,2022.2.5,375.9614743478901,
0,0,0,0,,"geschleppt,",#D292F3,None,None,None,None,0.4248518770036753,reading_bl_training_text,Reading_Baseline_training,51,,,r,w,no,2023-03-24_10h23.16.823,EXNAT-2,2022.2.5,375.9614743478901,
0,0,0,0,,Kinder,#F989A2,None,None,None,None,0.4181972200021846,reading_bl_training_text,Reading_Baseline_training,52,,,r,w,no,2023-03-24_10h23.16.823,EXNAT-2,2022.2.5,375.9614743478901,
0,0,0,0,,liefen,#D292F3,None,None,None,None,0.40456317499047145,reading_bl_training_text,Reading_Baseline_training,53,,,r,w,no,2023-03-24_10h23.16.823,EXNAT-2,2022.2.5,375.9614743478901,
0,0,0,0,,neugierig,#88BA3F,None,None,None,None,0.4151938699942548,reading_bl_training_text,Reading_Baseline_training,54,,,r,w,no,2023-03-24_10h23.16.823,EXNAT-2,2022.2.5,375.9614743478901,
0,0,0,0,,treppauf,#88BA3F,None,None,None,None,0.4327971710008569,reading_bl_training_text,Reading_Baseline_training,55,,,r,w,no,2023-03-24_10h23.16.823,EXNAT-2,2022.2.5,375.9614743478901,
0,0,0,0,,und,#2AB7EF,None,None,None,None,0.42315754799346905,reading_bl_training_text,Reading_Baseline_training,56,,,r,w,no,2023-03-24_10h23.16.823,EXNAT-2,2022.2.5,375.9614743478901,
0,0,0,0,,"treppab,",#D292F3,None,None,None,None,0.5115145730087534,reading_bl_training_text,Reading_Baseline_training,57,,,r,w,no,2023-03-24_10h23.16.823,EXNAT-2,2022.2.5,375.9614743478901,
0,0,0,0,,während,#2AB7EF,None,None,None,None,0.4140591659961501,reading_bl_training_text,Reading_Baseline_training,58,,,r,w,no,2023-03-24_10h23.16.823,EXNAT-2,2022.2.5,375.9614743478901,
0,0,0,0,,das,#F989A2,None,None,None,None,0.3965593409957364,reading_bl_training_text,Reading_Baseline_training,59,,,r,w,no,2023-03-24_10h23.16.823,EXNAT-2,2022.2.5,375.9614743478901,
0,0,0,0,,Orchester,#F989A2,None,None,None,None,0.4205590920028044,reading_bl_training_text,Reading_Baseline_training,60,,,r,w,no,2023-03-24_10h23.16.823,EXNAT-2,2022.2.5,375.9614743478901,
0,0,0,0,,unerschütterlich,#2AB7EF,None,None,None,None,0.4254901180102024,reading_bl_training_text,Reading_Baseline_training,61,,,r,w,no,2023-03-24_10h23.16.823,EXNAT-2,2022.2.5,375.9614743478901,
0,0,0,0,,zur,#2AB7EF,None,None,None,None,0.44183483900269493,reading_bl_training_text,Reading_Baseline_training,62,,,r,w,no,2023-03-24_10h23.16.823,EXNAT-2,2022.2.5,375.9614743478901,
0,0,0,0,,Deckshow,#F989A2,None,None,None,None,0.451168585990672,reading_bl_training_text,Reading_Baseline_training,63,,,r,w,no,2023-03-24_10h23.16.823,EXNAT-2,2022.2.5,375.9614743478901,
0,0,0,0,,spielte.,#88BA3F,None,None,None,None,0.4971618960116757,reading_bl_training_text,Reading_Baseline_training,64,,,r,w,no,2023-03-24_10h23.16.823,EXNAT-2,2022.2.5,375.9614743478901,
0,0,0,0,,Ich,#F989A2,None,None,None,None,0.4137138400110416,reading_bl_training_text,Reading_Baseline_training,65,,,r,w,no,2023-03-24_10h23.16.823,EXNAT-2,2022.2.5,375.9614743478901,
0,0,0,0,,stand,#88BA3F,None,None,None,None,0.4633820070012007,reading_bl_training_text,Reading_Baseline_training,66,,,r,w,no,2023-03-24_10h23.16.823,EXNAT-2,2022.2.5,375.9614743478901,
0,0,0,0,,im,#2AB7EF,None,None,None,None,0.4127950420079287,reading_bl_training_text,Reading_Baseline_training,67,,,r,w,no,2023-03-24_10h23.16.823,EXNAT-2,2022.2.5,375.9614743478901,
0,0,0,0,,Gespräch,#F989A2,None,None,None,None,0.3894464949989924,reading_bl_training_text,Reading_Baseline_training,68,,,r,w,no,2023-03-24_10h23.16.823,EXNAT-2,2022.2.5,375.9614743478901,
0,0,0,0,,mit,#D292F3,None,None,None,None,0.3935286899941275,reading_bl_training_text,Reading_Baseline_training,69,,,r,w,no,2023-03-24_10h23.16.823,EXNAT-2,2022.2.5,375.9614743478901,
0,0,0,0,,einem,#D292F3,None,None,None,None,0.39497299399226904,reading_bl_training_text,Reading_Baseline_training,70,,,r,w,no,2023-03-24_10h23.16.823,EXNAT-2,2022.2.5,375.9614743478901,
0,0,0,0,,Bekannten,#88BA3F,None,None,None,None,0.4103251719934633,reading_bl_training_text,Reading_Baseline_training,71,,,r,w,no,2023-03-24_10h23.16.823,EXNAT-2,2022.2.5,375.9614743478901,
0,0,0,0,,etwas,#D292F3,None,None,None,None,0.43455616100982297,reading_bl_training_text,Reading_Baseline_training,72,,,r,w,no,2023-03-24_10h23.16.823,EXNAT-2,2022.2.5,375.9614743478901,
0,0,0,0,,abseits,#F989A2,None,None,None,None,0.41939616700983606,reading_bl_training_text,Reading_Baseline_training,73,,,r,w,no,2023-03-24_10h23.16.823,EXNAT-2,2022.2.5,375.9614743478901,
0,0,0,0,,von,#F989A2,None,None,None,None,0.41282141901319847,reading_bl_training_text,Reading_Baseline_training,74,,,r,w,no,2023-03-24_10h23.16.823,EXNAT-2,2022.2.5,375.9614743478901,
0,0,0,0,,diesem,#88BA3F,None,None,None,None,0.3953053020086372,reading_bl_training_text,Reading_Baseline_training,75,,,r,w,no,2023-03-24_10h23.16.823,EXNAT-2,2022.2.5,375.9614743478901,
0,0,0,0,,Getümmel,#88BA3F,None,None,None,None,0.4488972320104949,reading_bl_training_text,Reading_Baseline_training,76,,,r,w,no,2023-03-24_10h23.16.823,EXNAT-2,2022.2.5,375.9614743478901,
0,0,0,0,,auf,#D292F3,None,None,None,None,0.42953693099843804,reading_bl_training_text,Reading_Baseline_training,77,,,r,w,no,2023-03-24_10h23.16.823,EXNAT-2,2022.2.5,375.9614743478901,
0,0,0,0,,dem,#2AB7EF,None,None,None,None,0.3908933830098249,reading_bl_training_text,Reading_Baseline_training,78,,,r,w,no,2023-03-24_10h23.16.823,EXNAT-2,2022.2.5,375.9614743478901,
0,0,0,0,,"Promenadendeck,",#D292F3,None,None,None,None,0.42771803999494296,reading_bl_training_text,Reading_Baseline_training,79,,,r,w,no,2023-03-24_10h23.16.823,EXNAT-2,2022.2.5,375.9614743478901,
0,0,0,0,,als,#88BA3F,None,None,None,None,0.23202750300697517,reading_bl_training_text,Reading_Baseline_training,80,,,r,w,no,2023-03-24_10h23.16.823,EXNAT-2,2022.2.5,375.9614743478901,
0,0,0,0,,neben,#2AB7EF,None,None,None,None,0.1299782340065576,reading_bl_training_text,Reading_Baseline_training,81,,,r,w,no,2023-03-24_10h23.16.823,EXNAT-2,2022.2.5,375.9614743478901,
0,0,0,0,,uns,#2AB7EF,None,None,None,None,0.1670905130013125,reading_bl_training_text,Reading_Baseline_training,82,,,r,w,no,2023-03-24_10h23.16.823,EXNAT-2,2022.2.5,375.9614743478901,
0,0,0,0,,zwei-,#F989A2,None,None,None,None,0.14798510100808926,reading_bl_training_text,Reading_Baseline_training,83,,,r,w,no,2023-03-24_10h23.16.823,EXNAT-2,2022.2.5,375.9614743478901,
0,0,0,0,,oder,#D292F3,None,None,None,None,0.15740675599954557,reading_bl_training_text,Reading_Baseline_training,84,,,r,w,no,2023-03-24_10h23.16.823,EXNAT-2,2022.2.5,375.9614743478901,
0,0,0,0,,dreimal,#88BA3F,None,None,None,None,0.1778796809958294,reading_bl_training_text,Reading_Baseline_training,85,,,r,w,no,2023-03-24_10h23.16.823,EXNAT-2,2022.2.5,375.9614743478901,
0,0,0,0,,Blitzlicht,#D292F3,None,None,None,None,0.15708301198901609,reading_bl_training_text,Reading_Baseline_training,86,,,r,w,no,2023-03-24_10h23.16.823,EXNAT-2,2022.2.5,375.9614743478901,
0,0,0,0,,scharf,#F989A2,None,None,None,None,0.14788689400302246,reading_bl_training_text,Reading_Baseline_training,87,,,r,w,no,2023-03-24_10h23.16.823,EXNAT-2,2022.2.5,375.9614743478901,
0,0,0,0,,aufsprühte,#F989A2,None,None,None,None,0.18521357300051022,reading_bl_training_text,Reading_Baseline_training,88,,,r,w,no,2023-03-24_10h23.16.823,EXNAT-2,2022.2.5,375.9614743478901,
0,0,0,0,,-,#88BA3F,None,None,None,None,0.1501998790045036,reading_bl_training_text,Reading_Baseline_training,89,,,r,w,no,2023-03-24_10h23.16.823,EXNAT-2,2022.2.5,375.9614743478901,
0,0,0,0,,anscheinend,#D292F3,None,None,None,None,0.16569112599245273,reading_bl_training_text,Reading_Baseline_training,90,,,r,w,no,2023-03-24_10h23.16.823,EXNAT-2,2022.2.5,375.9614743478901,
0,0,0,0,,war,#D292F3,None,None,None,None,0.17455614799109753,reading_bl_training_text,Reading_Baseline_training,91,,,r,w,no,2023-03-24_10h23.16.823,EXNAT-2,2022.2.5,375.9614743478901,
0,0,0,0,,irgendein,#88BA3F,None,None,None,None,0.16021382799954154,reading_bl_training_text,Reading_Baseline_training,92,,,r,w,no,2023-03-24_10h23.16.823,EXNAT-2,2022.2.5,375.9614743478901,
0,0,0,0,,Prominenter,#2AB7EF,None,None,None,None,0.16168708799523301,reading_bl_training_text,Reading_Baseline_training,93,,,r,w,no,2023-03-24_10h23.16.823,EXNAT-2,2022.2.5,375.9614743478901,
0,0,0,0,,knapp,#2AB7EF,None,None,None,None,0.16771613400487695,reading_bl_training_text,Reading_Baseline_training,94,,,r,w,no,2023-03-24_10h23.16.823,EXNAT-2,2022.2.5,375.9614743478901,
0,0,0,0,,vor,#F989A2,None,None,None,None,0.159868649992859,reading_bl_training_text,Reading_Baseline_training,95,,,r,w,no,2023-03-24_10h23.16.823,EXNAT-2,2022.2.5,375.9614743478901,
0,0,0,0,,der,#2AB7EF,None,None,None,None,0.16633354700752534,reading_bl_training_text,Reading_Baseline_training,96,,,r,w,no,2023-03-24_10h23.16.823,EXNAT-2,2022.2.5,375.9614743478901,
0,0,0,0,,Abfahrt,#F989A2,None,None,None,None,0.15606578400183935,reading_bl_training_text,Reading_Baseline_training,97,,,r,w,no,2023-03-24_10h23.16.823,EXNAT-2,2022.2.5,375.9614743478901,
0,0,0,0,,noch,#D292F3,None,None,None,None,0.14767730099265464,reading_bl_training_text,Reading_Baseline_training,98,,,r,w,no,2023-03-24_10h23.16.823,EXNAT-2,2022.2.5,375.9614743478901,
0,0,0,0,,rasch,#2AB7EF,None,None,None,None,0.16658893700514454,reading_bl_training_text,Reading_Baseline_training,99,,,r,w,no,2023-03-24_10h23.16.823,EXNAT-2,2022.2.5,375.9614743478901,
0,0,0,0,,von,#88BA3F,None,None,None,None,0.1684118480043253,reading_bl_training_text,Reading_Baseline_training,100,,,r,w,no,2023-03-24_10h23.16.823,EXNAT-2,2022.2.5,375.9614743478901,
0,0,0,0,,Reportern,#2AB7EF,None,None,None,None,0.1726817220041994,reading_bl_training_text,Reading_Baseline_training,101,,,r,w,no,2023-03-24_10h23.16.823,EXNAT-2,2022.2.5,375.9614743478901,
0,0,0,0,,interviewt,#88BA3F,None,None,None,None,0.16808167600538582,reading_bl_training_text,Reading_Baseline_training,102,,,r,w,no,2023-03-24_10h23.16.823,EXNAT-2,2022.2.5,375.9614743478901,
0,0,0,0,,und,#2AB7EF,None,None,None,None,0.17422592900402378,reading_bl_training_text,Reading_Baseline_training,103,,,r,w,no,2023-03-24_10h23.16.823,EXNAT-2,2022.2.5,375.9614743478901,
0,0,0,0,,photographiert,#D292F3,None,None,None,None,0.13385541200113948,reading_bl_training_text,Reading_Baseline_training,104,,,r,w,no,2023-03-24_10h23.16.823,EXNAT-2,2022.2.5,375.9614743478901,
0,0,0,0,,worden.,#F989A2,None,None,None,None,0.18570628300949465,reading_bl_training_text,Reading_Baseline_training,105,,,r,w,no,2023-03-24_10h23.16.823,EXNAT-2,2022.2.5,375.9614743478901,
0,0,0,0,,Mein,#88BA3F,None,None,None,None,0.16452989999379497,reading_bl_training_text,Reading_Baseline_training,106,,,r,w,no,2023-03-24_10h23.16.823,EXNAT-2,2022.2.5,375.9614743478901,
0,0,0,0,,Freund,#D292F3,None,None,None,None,0.1480476249998901,reading_bl_training_text,Reading_Baseline_training,107,,,r,w,no,2023-03-24_10h23.16.823,EXNAT-2,2022.2.5,375.9614743478901,
0,0,0,0,,blickte,#F989A2,None,None,None,None,0.1708993620122783,reading_bl_training_text,Reading_Baseline_training,108,,,r,w,no,2023-03-24_10h23.16.823,EXNAT-2,2022.2.5,375.9614743478901,
0,0,0,0,,hin,#2AB7EF,None,None,None,None,0.16387190400564577,reading_bl_training_text,Reading_Baseline_training,109,,,r,w,no,2023-03-24_10h23.16.823,EXNAT-2,2022.2.5,375.9614743478901,
0,0,0,0,,und,#88BA3F,None,None,None,None,0.15519561899418477,reading_bl_training_text,Reading_Baseline_training,110,,,r,w,no,2023-03-24_10h23.16.823,EXNAT-2,2022.2.5,375.9614743478901,
0,0,0,0,,lächelte.,#2AB7EF,None,None,None,None,0.16750855499412864,reading_bl_training_text,Reading_Baseline_training,111,,,r,w,no,2023-03-24_10h23.16.823,EXNAT-2,2022.2.5,375.9614743478901,
0,0,0,0,,"Sie,#D292F3,None,None,None,None,0.17103013000451028,reading_bl_training_text,Reading_Baseline_training,112,,,r,w,no,2023-03-24_10h23.16.823,EXNAT-2,2022.2.5,375.9614743478901,
0,0,0,0,,haben,#88BA3F,None,None,None,None,0.16681242700724397,reading_bl_training_text,Reading_Baseline_training,113,,,r,w,no,2023-03-24_10h23.16.823,EXNAT-2,2022.2.5,375.9614743478901,
0,0,0,0,,da,#F989A2,None,None,None,None,0.1702610759966774,reading_bl_training_text,Reading_Baseline_training,114,,,r,w,no,2023-03-24_10h23.16.823,EXNAT-2,2022.2.5,375.9614743478901,
0,0,0,0,,einen,#D292F3,None,None,None,None,0.1610601400025189,reading_bl_training_text,Reading_Baseline_training,115,,,r,w,no,2023-03-24_10h23.16.823,EXNAT-2,2022.2.5,375.9614743478901,
0,0,0,0,,raren,#D292F3,None,None,None,None,0.17988907800463494,reading_bl_training_text,Reading_Baseline_training,116,,,r,w,no,2023-03-24_10h23.16.823,EXNAT-2,2022.2.5,375.9614743478901,
0,0,0,0,,Vogel,#F989A2,None,None,None,None,0.1493229350016918,reading_bl_training_text,Reading_Baseline_training,117,,,r,w,no,2023-03-24_10h23.16.823,EXNAT-2,2022.2.5,375.9614743478901,
0,0,0,0,,an,#2AB7EF,None,None,None,None,0.1526379540009657,reading_bl_training_text,Reading_Baseline_training,118,,,r,w,no,2023-03-24_10h23.16.823,EXNAT-2,2022.2.5,375.9614743478901,
0,0,0,0,,"Bord,",#88BA3F,None,None,None,None,0.18250439800613094,reading_bl_training_text,Reading_Baseline_training,119,,,r,w,no,2023-03-24_10h23.16.823,EXNAT-2,2022.2.5,375.9614743478901,
0,0,0,0,,den,#F989A2,None,None,None,None,0.15298070599965286,reading_bl_training_text,Reading_Baseline_training,120,,,r,w,no,2023-03-24_10h23.16.823,EXNAT-2,2022.2.5,375.9614743478901,
0,0,0,0,,Czentovic.",#88BA3F,None,None,None,None,0.16977076999319252,reading_bl_training_text,Reading_Baseline_training,121,,,r,w,no,2023-03-24_10h23.16.823,EXNAT-2,2022.2.5,375.9614743478901,
0,0,0,0,,Und,#2AB7EF,None,None,None,None,0.15390867899986915,reading_bl_training_text,Reading_Baseline_training,122,,,r,w,no,2023-03-24_10h23.16.823,EXNAT-2,2022.2.5,375.9614743478901,
0,0,0,0,,da,#88BA3F,None,None,None,None,0.16526646599231753,reading_bl_training_text,Reading_Baseline_training,123,,,r,w,no,2023-03-24_10h23.16.823,EXNAT-2,2022.2.5,375.9614743478901,
0,0,0,0,,ich,#D292F3,None,None,None,None,0.16652189500746317,reading_bl_training_text,Reading_Baseline_training,124,,,r,w,no,2023-03-24_10h23.16.823,EXNAT-2,2022.2.5,375.9614743478901,
0,0,0,0,,offenbar,#D292F3,None,None,None,None,0.15235319499333855,reading_bl_training_text,Reading_Baseline_training,125,,,r,w,no,2023-03-24_10h23.16.823,EXNAT-2,2022.2.5,375.9614743478901,
0,0,0,0,,ein,#88BA3F,None,None,None,None,0.16412055099499412,reading_bl_training_text,Reading_Baseline_training,126,,,r,w,no,2023-03-24_10h23.16.823,EXNAT-2,2022.2.5,375.9614743478901,
0,0,0,0,,ziemlich,#F989A2,None,None,None,None,0.1701074320008047,reading_bl_training_text,Reading_Baseline_training,127,,,r,w,no,2023-03-24_10h23.16.823,EXNAT-2,2022.2.5,375.9614743478901,
0,0,0,0,,verständnisloses,#2AB7EF,None,None,None,None,0.15480871101317462,reading_bl_training_text,Reading_Baseline_training,128,,,r,w,no,2023-03-24_10h23.16.823,EXNAT-2,2022.2.5,375.9614743478901,
0,0,0,0,,Gesicht,#F989A2,None,None,None,None,0.11967838399868924,reading_bl_training_text,Reading_Baseline_training,129,,,r,w,no,2023-03-24_10h23.16.823,EXNAT-2,2022.2.5,375.9614743478901,
0,0,0,0,,zu,#F989A2,None,None,None,None,0.20981932499853428,reading_bl_training_text,Reading_Baseline_training,130,,,r,w,no,2023-03-24_10h23.16.823,EXNAT-2,2022.2.5,375.9614743478901,
0,0,0,0,,dieser,#2AB7EF,None,None,None,None,0.1791826620028587,reading_bl_training_text,Reading_Baseline_training,131,,,r,w,no,2023-03-24_10h23.16.823,EXNAT-2,2022.2.5,375.9614743478901,
0,0,0,0,,Mitteilung,#D292F3,None,None,None,None,0.17180663099861704,reading_bl_training_text,Reading_Baseline_training,132,,,r,w,no,2023-03-24_10h23.16.823,EXNAT-2,2022.2.5,375.9614743478901,
0,0,0,0,,"machte,",#F989A2,None,None,None,None,0.15930935100186616,reading_bl_training_text,Reading_Baseline_training,133,,,r,w,no,2023-03-24_10h23.16.823,EXNAT-2,2022.2.5,375.9614743478901,
0,0,0,0,,fügte,#2AB7EF,None,None,None,None,0.17388984600256663,reading_bl_training_text,Reading_Baseline_training,134,,,r,w,no,2023-03-24_10h23.16.823,EXNAT-2,2022.2.5,375.9614743478901,
0,0,0,0,,er,#F989A2,None,None,None,None,0.1584030419908231,reading_bl_training_text,Reading_Baseline_training,135,,,r,w,no,2023-03-24_10h23.16.823,EXNAT-2,2022.2.5,375.9614743478901,
0,0,0,0,,erklärend,#88BA3F,None,None,None,None,0.17603123000299092,reading_bl_training_text,Reading_Baseline_training,136,,,r,w,no,2023-03-24_10h23.16.823,EXNAT-2,2022.2.5,375.9614743478901,
0,0,0,0,,bei:,#2AB7EF,None,None,None,None,0.1661005740024848,reading_bl_training_text,Reading_Baseline_training,137,,,r,w,no,2023-03-24_10h23.16.823,EXNAT-2,2022.2.5,375.9614743478901,
0,0,0,0,,"Mirko,#D292F3,None,None,None,None,0.16580814600456506,reading_bl_training_text,Reading_Baseline_training,138,,,r,w,no,2023-03-24_10h23.16.823,EXNAT-2,2022.2.5,375.9614743478901,
0,0,0,0,,"Czentovic,",#F989A2,None,None,None,None,0.17239677401084919,reading_bl_training_text,Reading_Baseline_training,139,,,r,w,no,2023-03-24_10h23.16.823,EXNAT-2,2022.2.5,375.9614743478901,
0,0,0,0,,der,#D292F3,None,None,None,None,0.16630939299648162,reading_bl_training_text,Reading_Baseline_training,140,,,r,w,no,2023-03-24_10h23.16.823,EXNAT-2,2022.2.5,375.9614743478901,
0,0,0,0,,Weltschachmeister.,#2AB7EF,None,None,None,None,0.16083736199652776,reading_bl_training_text,Reading_Baseline_training,141,,,r,w,no,2023-03-24_10h23.16.823,EXNAT-2,2022.2.5,375.9614743478901,
0,0,0,0,,Er,#88BA3F,None,None,None,None,0.16634018799231853,reading_bl_training_text,Reading_Baseline_training,142,,,r,w,no,2023-03-24_10h23.16.823,EXNAT-2,2022.2.5,375.9614743478901,
0,0,0,0,,hat,#D292F3,None,None,None,None,0.158873307009344,reading_bl_training_text,Reading_Baseline_training,143,,,r,w,no,2023-03-24_10h23.16.823,EXNAT-2,2022.2.5,375.9614743478901,
0,0,0,0,,ganz,#88BA3F,None,None,None,None,0.18490643899713177,reading_bl_training_text,Reading_Baseline_training,144,,,r,w,no,2023-03-24_10h23.16.823,EXNAT-2,2022.2.5,375.9614743478901,
0,0,0,0,,Amerika,#F989A2,None,None,None,None,0.14837863700813614,reading_bl_training_text,Reading_Baseline_training,145,,,r,w,no,2023-03-24_10h23.16.823,EXNAT-2,2022.2.5,375.9614743478901,
0,0,0,0,,von,#2AB7EF,None,None,None,None,0.1793382869946072,reading_bl_training_text,Reading_Baseline_training,146,,,r,w,no,2023-03-24_10h23.16.823,EXNAT-2,2022.2.5,375.9614743478901,
0,0,0,0,,Ost,#D292F3,None,None,None,None,0.17007306500454433,reading_bl_training_text,Reading_Baseline_training,147,,,r,w,no,2023-03-24_10h23.16.823,EXNAT-2,2022.2.5,375.9614743478901,
0,0,0,0,,nach,#2AB7EF,None,None,None,None,0.16549145099997986,reading_bl_training_text,Reading_Baseline_training,148,,,r,w,no,2023-03-24_10h23.16.823,EXNAT-2,2022.2.5,375.9614743478901,
0,0,0,0,,West,#F989A2,None,None,None,None,0.1746160629991209,reading_bl_training_text,Reading_Baseline_training,149,,,r,w,no,2023-03-24_10h23.16.823,EXNAT-2,2022.2.5,375.9614743478901,
0,0,0,0,,mit,#88BA3F,None,None,None,None,0.17705092200776562,reading_bl_training_text,Reading_Baseline_training,150,,,r,w,no,2023-03-24_10h23.16.823,EXNAT-2,2022.2.5,375.9614743478901,
0,0,0,0,,Turnierspielen,#F989A2,None,None,None,None,0.16472233600507025,reading_bl_training_text,Reading_Baseline_training,151,,,r,w,no,2023-03-24_10h23.16.823,EXNAT-2,2022.2.5,375.9614743478901,
0,0,0,0,,abgeklappert,#D292F3,None,None,None,None,0.17334655500599183,reading_bl_training_text,Reading_Baseline_training,152,,,r,w,no,2023-03-24_10h23.16.823,EXNAT-2,2022.2.5,375.9614743478901,
0,0,0,0,,und,#2AB7EF,None,None,None,None,0.16716421100136358,reading_bl_training_text,Reading_Baseline_training,153,,,r,w,no,2023-03-24_10h23.16.823,EXNAT-2,2022.2.5,375.9614743478901,
0,0,0,0,,fährt,#D292F3,None,None,None,None,0.1776912690111203,reading_bl_training_text,Reading_Baseline_training,154,,,r,w,no,2023-03-24_10h23.16.823,EXNAT-2,2022.2.5,375.9614743478901,
0,0,0,0,,jetzt,#88BA3F,None,None,None,None,0.16991891800716985,reading_bl_training_text,Reading_Baseline_training,155,,,r,w,no,2023-03-24_10h23.16.823,EXNAT-2,2022.2.5,375.9614743478901,
0,0,0,0,,zu,#88BA3F,None,None,None,None,0.1689302539889468,reading_bl_training_text,Reading_Baseline_training,156,,,r,w,no,2023-03-24_10h23.16.823,EXNAT-2,2022.2.5,375.9614743478901,
0,0,0,0,,neuen,#88BA3F,None,None,None,None,0.1681949799967697,reading_bl_training_text,Reading_Baseline_training,157,,,r,w,no,2023-03-24_10h23.16.823,EXNAT-2,2022.2.5,375.9614743478901,
0,0,0,0,,Triumphen,#F989A2,None,None,None,None,0.17522725999879185,reading_bl_training_text,Reading_Baseline_training,158,,,r,w,no,2023-03-24_10h23.16.823,EXNAT-2,2022.2.5,375.9614743478901,
0,0,0,0,,nach,#D292F3,None,None,None,None,0.1634971570019843,reading_bl_training_text,Reading_Baseline_training,159,,,r,w,no,2023-03-24_10h23.16.823,EXNAT-2,2022.2.5,375.9614743478901,
