DisplayImage,corrAns,ishihara_pics.thisRepN,ishihara_pics.thisTrialN,ishihara_pics.thisN,ishihara_pics.thisIndex,blocks.thisRepN,blocks.thisTrialN,blocks.thisN,blocks.thisIndex,thisRow.t,notes,Settings.started,Settings.stopped,demographics.started,demographics.stopped,demographic_form.index,demographic_form.itemText,demographic_form.type,demographic_form.font,demographic_form.markerColor,demographic_form.response,demographic_form.rt,education.started,education.stopped,edu_form.index,edu_form.itemText,edu_form.type,edu_form.font,edu_form.markerColor,edu_form.response,edu_form.rt,Ishihara.started,Ishihara.stopped,ishihara_number.text,no_text_blocks_self_paced.started,no_text_blocks_self_paced.stopped,text_blocks_self_paced.started,colour,target,nback_response,nback_RT,duration,text_nr,trial_nr,block_nr,block_name,block_kind,word,global_onset_time,question,button_pressed,chosen_ans,ans_correct,block_nr_exp,n-back_level,text_blocks_self_paced.stopped,text_blocks_paced.started,text_blocks_paced.stopped,no_text_blocks_paced.started,no_text_blocks_paced.stopped,pseudotext.started,pseudotext.stopped,curr_0back_target,RT_per_letter_baseline,RT_per_letter_0back,RT_per_rect_1back_single,RT_per_letter_1bck,RT_per_rect_2back_single,RT_per_letter_2bck,participant,testing_mode,date,expName,psychopyVersion,expStart
,,,,,,,,,,,,0.015191078186035,0.015490055084229,,,,,,,,,,,,,,,,,,,,,,,,,,,,,,,,,,,,,,,,,,,,,,,,,,,,,,,,,MA01,no,2024-08-22_08h07.10.569,EXNAT_3_training,2024.1.0,2024-08-22 08h07.51.867027 +0200
,,,,,,,,,,,,,,0.015505075454712,71.0502991676331,0,Willkommen zum Experiment!,heading,None,None,,,,,,,,,,,,,,,,,,,,,,,,,,,,,,,,,,,,,,,,,,,,,,,,,,MA01,no,2024-08-22_08h07.10.569,EXNAT_3_training,2024.1.0,2024-08-22 08h07.51.867027 +0200
,,,,,,,,,,,,,,,,0,Bitte beantworten Sie zunächst die folgenden Fragen:,description,None,None,,,,,,,,,,,,,,,,,,,,,,,,,,,,,,,,,,,,,,,,,,,,,,,,,,MA01,no,2024-08-22_08h07.10.569,EXNAT_3_training,2024.1.0,2024-08-22 08h07.51.867027 +0200
,,,,,,,,,,,,,,,,gender,Welches Geschlecht steht in Ihrem Ausweis?,radio,None,None,Männlich,51.9130389690399,,,,,,,,,,,,,,,,,,,,,,,,,,,,,,,,,,,,,,,,,,,,,,,,MA01,no,2024-08-22_08h07.10.569,EXNAT_3_training,2024.1.0,2024-08-22 08h07.51.867027 +0200
,,,,,,,,,,,,,,,,age,Wie alt sind Sie?,free text,None,None,50,None,,,,,,,,,,,,,,,,,,,,,,,,,,,,,,,,,,,,,,,,,,,,,,,,MA01,no,2024-08-22_08h07.10.569,EXNAT_3_training,2024.1.0,2024-08-22 08h07.51.867027 +0200
,,,,,,,,,,,,,,,,language,Ist Deutsch Ihre Muttersprache?,radio,None,None,Ja,55.7799770832062,,,,,,,,,,,,,,,,,,,,,,,,,,,,,,,,,,,,,,,,,,,,,,,,MA01,no,2024-08-22_08h07.10.569,EXNAT_3_training,2024.1.0,2024-08-22 08h07.51.867027 +0200
,,,,,,,,,,,,,,,,dyslexia,Haben Sie eine Leseschwäche?,radio,None,None,Nein,59.1691880226135,,,,,,,,,,,,,,,,,,,,,,,,,,,,,,,,,,,,,,,,,,,,,,,,MA01,no,2024-08-22_08h07.10.569,EXNAT_3_training,2024.1.0,2024-08-22 08h07.51.867027 +0200
,,,,,,,,,,,,,,,,vision_glasses,Tragen Sie eine Brille?,radio,None,None,Ja,9.17662405967712,,,,,,,,,,,,,,,,,,,,,,,,,,,,,,,,,,,,,,,,,,,,,,,,MA01,no,2024-08-22_08h07.10.569,EXNAT_3_training,2024.1.0,2024-08-22 08h07.51.867027 +0200
,,,,,,,,,,,,,,,,vision_lenses,Tragen Sie Kontaktlinsen?,radio,None,None,Nein,11.2654991149902,,,,,,,,,,,,,,,,,,,,,,,,,,,,,,,,,,,,,,,,,,,,,,,,MA01,no,2024-08-22_08h07.10.569,EXNAT_3_training,2024.1.0,2024-08-22 08h07.51.867027 +0200
,,,,,,,,,,,,,,,,handedness,Sind Sie rechtshändig?,radio,None,None,Ja,11.9275979995728,,,,,,,,,,,,,,,,,,,,,,,,,,,,,,,,,,,,,,,,,,,,,,,,MA01,no,2024-08-22_08h07.10.569,EXNAT_3_training,2024.1.0,2024-08-22 08h07.51.867027 +0200
,,,,,,,,,,,,,,,,,,,,,,,,,,,,,,,,,,,,,,,,,,,,,,,,,,,,,,,,,,,,,,,,,,,,,,MA01,no,2024-08-22_08h07.10.569,EXNAT_3_training,2024.1.0,2024-08-22 08h07.51.867027 +0200
,,,,,,,,,,,,,,,,,,,,,,,71.0504400730133,119.628092050552,0,Bitte beantworten Sie die folgenden Fragen zu Ihrer Ausbildung:,description,None,None,,,,,,,,,,,,,,,,,,,,,,,,,,,,,,,,,,,,,,,,,MA01,no,2024-08-22_08h07.10.569,EXNAT_3_training,2024.1.0,2024-08-22 08h07.51.867027 +0200
,,,,,,,,,,,,,,,,,,,,,,,,,education,Was ist Ihr höchster Bildungsabschluss?,radio,None,None,abgeschlossenes Studium,4.36491012573242,,,,,,,,,,,,,,,,,,,,,,,,,,,,,,,,,,,,,,,MA01,no,2024-08-22_08h07.10.569,EXNAT_3_training,2024.1.0,2024-08-22 08h07.51.867027 +0200
,,,,,,,,,,,,,,,,,,,,,,,,,edu_intro,Wie viele Jahre verbrachten Sie insgesamt mit:,description,None,None,,,,,,,,,,,,,,,,,,,,,,,,,,,,,,,,,,,,,,,,,MA01,no,2024-08-22_08h07.10.569,EXNAT_3_training,2024.1.0,2024-08-22 08h07.51.867027 +0200
,,,,,,,,,,,,,,,,,,,,,,,,,edu_school_years,Schule,free text,None,None,12,None,,,,,,,,,,,,,,,,,,,,,,,,,,,,,,,,,,,,,,,MA01,no,2024-08-22_08h07.10.569,EXNAT_3_training,2024.1.0,2024-08-22 08h07.51.867027 +0200
,,,,,,,,,,,,,,,,,,,,,,,,,edu_eveningschool_years,Abendschule,free text,None,None,0,None,,,,,,,,,,,,,,,,,,,,,,,,,,,,,,,,,,,,,,,MA01,no,2024-08-22_08h07.10.569,EXNAT_3_training,2024.1.0,2024-08-22 08h07.51.867027 +0200
,,,,,,,,,,,,,,,,,,,,,,,,,edu_training_years,Ausbildung,free text,None,None,0,None,,,,,,,,,,,,,,,,,,,,,,,,,,,,,,,,,,,,,,,MA01,no,2024-08-22_08h07.10.569,EXNAT_3_training,2024.1.0,2024-08-22 08h07.51.867027 +0200
,,,,,,,,,,,,,,,,,,,,,,,,,edu_training_GDR_years,Fachschule,free text,None,None,0,None,,,,,,,,,,,,,,,,,,,,,,,,,,,,,,,,,,,,,,,MA01,no,2024-08-22_08h07.10.569,EXNAT_3_training,2024.1.0,2024-08-22 08h07.51.867027 +0200
,,,,,,,,,,,,,,,,,,,,,,,,,edu_uni_years,Universität/Hochschule,free text,None,None,6,None,,,,,,,,,,,,,,,,,,,,,,,,,,,,,,,,,,,,,,,MA01,no,2024-08-22_08h07.10.569,EXNAT_3_training,2024.1.0,2024-08-22 08h07.51.867027 +0200
,,,,,,,,,,,,,,,,,,,,,,,,,edu_other_years,Sonstiges,free text,None,None,0,None,,,,,,,,,,,,,,,,,,,,,,,,,,,,,,,,,,,,,,,MA01,no,2024-08-22_08h07.10.569,EXNAT_3_training,2024.1.0,2024-08-22 08h07.51.867027 +0200
,,,,,,,,,,,,,,,,,,,,,,,,,edu_profession,Was ist Ihr derzeitiger/letzter Beruf?,free text,None,None,Architekt,None,,,,,,,,,,,,,,,,,,,,,,,,,,,,,,,,,,,,,,,MA01,no,2024-08-22_08h07.10.569,EXNAT_3_training,2024.1.0,2024-08-22 08h07.51.867027 +0200
,,,,,,,,,,,,,,,,,,,,,,,,,,,,,,,,,,,,,,,,,,,,,,,,,,,,,,,,,,,,,,,,,,,,,,MA01,no,2024-08-22_08h07.10.569,EXNAT_3_training,2024.1.0,2024-08-22 08h07.51.867027 +0200
,,,,,,,,,,,,,,,,,,,,,,,,,,,,,,,,,,,,,,,,,,,,,,,,,,,,,,,,,,,,,,,,,,,,,,MA01,no,2024-08-22_08h07.10.569,EXNAT_3_training,2024.1.0,2024-08-22 08h07.51.867027 +0200
Stimuli_and_Resources/Ishihara_Colour_Vision_Test/ishihara_test6_15.png,15,0,0,0,5,,,,,127.192031145096,,,,,,,,,,,,,,,,,,,,,,127.119373083115,130.14737200737,15,,,,,,,,,,,,,,,,,,,,,,,,,,,,,,,,,,,,MA01,no,2024-08-22_08h07.10.569,EXNAT_3_training,2024.1.0,2024-08-22 08h07.51.867027 +0200
Stimuli_and_Resources/Ishihara_Colour_Vision_Test/ishihara_test2_17.png,17,0,1,1,1,,,,,131.198549985886,,,,,,,,,,,,,,,,,,,,,,131.148972988129,136.376103162766,17,,,,,,,,,,,,,,,,,,,,,,,,,,,,,,,,,,,,MA01,no,2024-08-22_08h07.10.569,EXNAT_3_training,2024.1.0,2024-08-22 08h07.51.867027 +0200
Stimuli_and_Resources/Ishihara_Colour_Vision_Test/ishihara_test5_23.png,23,0,2,2,4,,,,,137.427324056625,,,,,,,,,,,,,,,,,,,,,,137.377762079239,140.016561985016,23,,,,,,,,,,,,,,,,,,,,,,,,,,,,,,,,,,,,MA01,no,2024-08-22_08h07.10.569,EXNAT_3_training,2024.1.0,2024-08-22 08h07.51.867027 +0200
Stimuli_and_Resources/Ishihara_Colour_Vision_Test/ishihara_test4_78.png,78,0,3,3,3,,,,,141.069021940231,,,,,,,,,,,,,,,,,,,,,,141.019376039505,143.773834943771,78,,,,,,,,,,,,,,,,,,,,,,,,,,,,,,,,,,,,MA01,no,2024-08-22_08h07.10.569,EXNAT_3_training,2024.1.0,2024-08-22 08h07.51.867027 +0200
Stimuli_and_Resources/Ishihara_Colour_Vision_Test/ishihara_test1_70.png,70,0,4,4,0,,,,,144.82505106926,,,,,,,,,,,,,,,,,,,,,,144.775498151779,147.614665031433,70,,,,,,,,,,,,,,,,,,,,,,,,,,,,,,,,,,,,MA01,no,2024-08-22_08h07.10.569,EXNAT_3_training,2024.1.0,2024-08-22 08h07.51.867027 +0200
Stimuli_and_Resources/Ishihara_Colour_Vision_Test/ishihara_test3_21.png,21,0,5,5,2,,,,,148.667139053345,,,,,,,,,,,,,,,,,,,,,,148.617483139038,151.338557958603,21,,,,,,,,,,,,,,,,,,,,,,,,,,,,,,,,,,,,MA01,no,2024-08-22_08h07.10.569,EXNAT_3_training,2024.1.0,2024-08-22 08h07.51.867027 +0200
,,,,,,0,0,0,0,152.356590986252,,,,,,,,,,,,,,,,,,,,,,,,,152.340504169464,152.356663942337,152.356673955917,#2AB7EF,None,None,None,1317.47698783875,reading_bl_training_text,1,0,Reading_Baseline_training_click,None,Auf,,,,,,,,,,,,,,,,,,,,,,MA01,no,2024-08-22_08h07.10.569,EXNAT_3_training,2024.1.0,2024-08-22 08h07.51.867027 +0200
,,,,,,0,0,0,0,,,,,,,,,,,,,,,,,,,,,,,,,,,,,#2AB7EF,None,None,None,732.076168060303,reading_bl_training_text,2,0,Reading_Baseline_training_click,None,dem,,,,,,,,,,,,,,,,,,,,,,MA01,no,2024-08-22_08h07.10.569,EXNAT_3_training,2024.1.0,2024-08-22 08h07.51.867027 +0200
,,,,,,0,0,0,0,,,,,,,,,,,,,,,,,,,,,,,,,,,,,#F989A2,None,None,None,714.432954788208,reading_bl_training_text,3,0,Reading_Baseline_training_click,None,großen,,,,,,,,,,,,,,,,,,,,,,MA01,no,2024-08-22_08h07.10.569,EXNAT_3_training,2024.1.0,2024-08-22 08h07.51.867027 +0200
,,,,,,0,0,0,0,,,,,,,,,,,,,,,,,,,,,,,,,,,,,#D292F3,None,None,None,764.364004135132,reading_bl_training_text,4,0,Reading_Baseline_training_click,None,"Passagierdampfer,",,,,,,,,,,,,,,,,,,,,,,MA01,no,2024-08-22_08h07.10.569,EXNAT_3_training,2024.1.0,2024-08-22 08h07.51.867027 +0200
,,,,,,0,0,0,0,,,,,,,,,,,,,,,,,,,,,,,,,,,,,#88BA3F,None,None,None,649.039030075073,reading_bl_training_text,5,0,Reading_Baseline_training_click,None,der,,,,,,,,,,,,,,,,,,,,,,MA01,no,2024-08-22_08h07.10.569,EXNAT_3_training,2024.1.0,2024-08-22 08h07.51.867027 +0200
,,,,,,0,0,0,0,,,,,,,,,,,,,,,,,,,,,,,,,,,,,#D292F3,None,None,None,632.372140884399,reading_bl_training_text,6,0,Reading_Baseline_training_click,None,um,,,,,,,,,,,,,,,,,,,,,,MA01,no,2024-08-22_08h07.10.569,EXNAT_3_training,2024.1.0,2024-08-22 08h07.51.867027 +0200
,,,,,,0,0,0,0,,,,,,,,,,,,,,,,,,,,,,,,,,,,,#F989A2,None,None,None,564.46099281311,reading_bl_training_text,7,0,Reading_Baseline_training_click,None,Mitternacht,,,,,,,,,,,,,,,,,,,,,,MA01,no,2024-08-22_08h07.10.569,EXNAT_3_training,2024.1.0,2024-08-22 08h07.51.867027 +0200
,,,,,,0,0,0,0,,,,,,,,,,,,,,,,,,,,,,,,,,,,,#D292F3,None,None,None,498.566865921021,reading_bl_training_text,8,0,Reading_Baseline_training_click,None,von,,,,,,,,,,,,,,,,,,,,,,MA01,no,2024-08-22_08h07.10.569,EXNAT_3_training,2024.1.0,2024-08-22 08h07.51.867027 +0200
,,,,,,0,0,0,0,,,,,,,,,,,,,,,,,,,,,,,,,,,,,#88BA3F,None,None,None,448.342084884644,reading_bl_training_text,9,0,Reading_Baseline_training_click,None,New,,,,,,,,,,,,,,,,,,,,,,MA01,no,2024-08-22_08h07.10.569,EXNAT_3_training,2024.1.0,2024-08-22 08h07.51.867027 +0200
,,,,,,0,0,0,0,,,,,,,,,,,,,,,,,,,,,,,,,,,,,#2AB7EF,None,None,None,498.112916946411,reading_bl_training_text,10,0,Reading_Baseline_training_click,None,York,,,,,,,,,,,,,,,,,,,,,,MA01,no,2024-08-22_08h07.10.569,EXNAT_3_training,2024.1.0,2024-08-22 08h07.51.867027 +0200
,,,,,,0,0,0,0,,,,,,,,,,,,,,,,,,,,,,,,,,,,,#F989A2,None,None,None,649.156093597412,reading_bl_training_text,11,0,Reading_Baseline_training_click,None,nach,,,,,,,,,,,,,,,,,,,,,,MA01,no,2024-08-22_08h07.10.569,EXNAT_3_training,2024.1.0,2024-08-22 08h07.51.867027 +0200
,,,,,,0,0,0,0,,,,,,,,,,,,,,,,,,,,,,,,,,,,,#88BA3F,None,None,None,681.849002838135,reading_bl_training_text,12,0,Reading_Baseline_training_click,None,Buenos,,,,,,,,,,,,,,,,,,,,,,MA01,no,2024-08-22_08h07.10.569,EXNAT_3_training,2024.1.0,2024-08-22 08h07.51.867027 +0200
,,,,,,0,0,0,0,,,,,,,,,,,,,,,,,,,,,,,,,,,,,#88BA3F,None,None,None,582.211017608643,reading_bl_training_text,13,0,Reading_Baseline_training_click,None,Aires,,,,,,,,,,,,,,,,,,,,,,MA01,no,2024-08-22_08h07.10.569,EXNAT_3_training,2024.1.0,2024-08-22 08h07.51.867027 +0200
,,,,,,0,0,0,0,,,,,,,,,,,,,,,,,,,,,,,,,,,,,#F989A2,None,None,None,665.222883224487,reading_bl_training_text,14,0,Reading_Baseline_training_click,None,abgehen,,,,,,,,,,,,,,,,,,,,,,MA01,no,2024-08-22_08h07.10.569,EXNAT_3_training,2024.1.0,2024-08-22 08h07.51.867027 +0200
,,,,,,0,0,0,0,,,,,,,,,,,,,,,,,,,,,,,,,,,,,#F989A2,None,None,None,631.649971008301,reading_bl_training_text,15,0,Reading_Baseline_training_click,None,"sollte,",,,,,,,,,,,,,,,,,,,,,,MA01,no,2024-08-22_08h07.10.569,EXNAT_3_training,2024.1.0,2024-08-22 08h07.51.867027 +0200
,,,,,,0,0,0,0,,,,,,,,,,,,,,,,,,,,,,,,,,,,,#D292F3,None,None,None,531.678915023804,reading_bl_training_text,16,0,Reading_Baseline_training_click,None,herrschte,,,,,,,,,,,,,,,,,,,,,,MA01,no,2024-08-22_08h07.10.569,EXNAT_3_training,2024.1.0,2024-08-22 08h07.51.867027 +0200
,,,,,,0,0,0,0,,,,,,,,,,,,,,,,,,,,,,,,,,,,,#88BA3F,None,None,None,548.927783966064,reading_bl_training_text,17,0,Reading_Baseline_training_click,None,die,,,,,,,,,,,,,,,,,,,,,,MA01,no,2024-08-22_08h07.10.569,EXNAT_3_training,2024.1.0,2024-08-22 08h07.51.867027 +0200
,,,,,,0,0,0,0,,,,,,,,,,,,,,,,,,,,,,,,,,,,,#F989A2,None,None,None,548.3078956604,reading_bl_training_text,18,0,Reading_Baseline_training_click,None,übliche,,,,,,,,,,,,,,,,,,,,,,MA01,no,2024-08-22_08h07.10.569,EXNAT_3_training,2024.1.0,2024-08-22 08h07.51.867027 +0200
,,,,,,0,0,0,0,,,,,,,,,,,,,,,,,,,,,,,,,,,,,#D292F3,None,None,None,597.851037979126,reading_bl_training_text,19,0,Reading_Baseline_training_click,None,Geschäftigkeit,,,,,,,,,,,,,,,,,,,,,,MA01,no,2024-08-22_08h07.10.569,EXNAT_3_training,2024.1.0,2024-08-22 08h07.51.867027 +0200
,,,,,,0,0,0,0,,,,,,,,,,,,,,,,,,,,,,,,,,,,,#2AB7EF,None,None,None,565.608024597168,reading_bl_training_text,20,0,Reading_Baseline_training_click,None,und,,,,,,,,,,,,,,,,,,,,,,MA01,no,2024-08-22_08h07.10.569,EXNAT_3_training,2024.1.0,2024-08-22 08h07.51.867027 +0200
,,,,,,0,0,0,0,,,,,,,,,,,,,,,,,,,,,,,,,,,,,#2AB7EF,None,None,None,581.879138946533,reading_bl_training_text,21,0,Reading_Baseline_training_click,None,Bewegung,,,,,,,,,,,,,,,,,,,,,,MA01,no,2024-08-22_08h07.10.569,EXNAT_3_training,2024.1.0,2024-08-22 08h07.51.867027 +0200
,,,,,,0,0,0,0,,,,,,,,,,,,,,,,,,,,,,,,,,,,,#D292F3,None,None,None,616.137981414795,reading_bl_training_text,22,0,Reading_Baseline_training_click,None,der,,,,,,,,,,,,,,,,,,,,,,MA01,no,2024-08-22_08h07.10.569,EXNAT_3_training,2024.1.0,2024-08-22 08h07.51.867027 +0200
,,,,,,0,0,0,0,,,,,,,,,,,,,,,,,,,,,,,,,,,,,#88BA3F,None,None,None,547.531843185425,reading_bl_training_text,23,0,Reading_Baseline_training_click,None,letzten,,,,,,,,,,,,,,,,,,,,,,MA01,no,2024-08-22_08h07.10.569,EXNAT_3_training,2024.1.0,2024-08-22 08h07.51.867027 +0200
,,,,,,0,0,0,0,,,,,,,,,,,,,,,,,,,,,,,,,,,,,#2AB7EF,None,None,None,532.047033309937,reading_bl_training_text,24,0,Reading_Baseline_training_click,None,Stunde.,,,,,,,,,,,,,,,,,,,,,,MA01,no,2024-08-22_08h07.10.569,EXNAT_3_training,2024.1.0,2024-08-22 08h07.51.867027 +0200
,,,,,,0,0,0,0,,,,,,,,,,,,,,,,,,,,,,,,,,,,,#D292F3,None,None,None,849.338054656982,reading_bl_training_text,25,0,Reading_Baseline_training_click,None,Gäste,,,,,,,,,,,,,,,,,,,,,,MA01,no,2024-08-22_08h07.10.569,EXNAT_3_training,2024.1.0,2024-08-22 08h07.51.867027 +0200
,,,,,,0,0,0,0,,,,,,,,,,,,,,,,,,,,,,,,,,,,,#2AB7EF,None,None,None,598.68597984314,reading_bl_training_text,26,0,Reading_Baseline_training_click,None,vom,,,,,,,,,,,,,,,,,,,,,,MA01,no,2024-08-22_08h07.10.569,EXNAT_3_training,2024.1.0,2024-08-22 08h07.51.867027 +0200
,,,,,,0,0,0,0,,,,,,,,,,,,,,,,,,,,,,,,,,,,,#88BA3F,None,None,None,465.712070465088,reading_bl_training_text,27,0,Reading_Baseline_training_click,None,Land,,,,,,,,,,,,,,,,,,,,,,MA01,no,2024-08-22_08h07.10.569,EXNAT_3_training,2024.1.0,2024-08-22 08h07.51.867027 +0200
,,,,,,0,0,0,0,,,,,,,,,,,,,,,,,,,,,,,,,,,,,#D292F3,None,None,None,531.686067581177,reading_bl_training_text,28,0,Reading_Baseline_training_click,None,verabschiedeten,,,,,,,,,,,,,,,,,,,,,,MA01,no,2024-08-22_08h07.10.569,EXNAT_3_training,2024.1.0,2024-08-22 08h07.51.867027 +0200
,,,,,,0,0,0,0,,,,,,,,,,,,,,,,,,,,,,,,,,,,,#D292F3,None,None,None,548.233985900879,reading_bl_training_text,29,0,Reading_Baseline_training_click,None,"sich,",,,,,,,,,,,,,,,,,,,,,,MA01,no,2024-08-22_08h07.10.569,EXNAT_3_training,2024.1.0,2024-08-22 08h07.51.867027 +0200
,,,,,,0,0,0,0,,,,,,,,,,,,,,,,,,,,,,,,,,,,,#F989A2,None,None,None,398.883104324341,reading_bl_training_text,30,0,Reading_Baseline_training_click,None,während,,,,,,,,,,,,,,,,,,,,,,MA01,no,2024-08-22_08h07.10.569,EXNAT_3_training,2024.1.0,2024-08-22 08h07.51.867027 +0200
,,,,,,0,0,0,0,,,,,,,,,,,,,,,,,,,,,,,,,,,,,#F989A2,None,None,None,499.083042144775,reading_bl_training_text,31,0,Reading_Baseline_training_click,None,das,,,,,,,,,,,,,,,,,,,,,,MA01,no,2024-08-22_08h07.10.569,EXNAT_3_training,2024.1.0,2024-08-22 08h07.51.867027 +0200
,,,,,,0,0,0,0,,,,,,,,,,,,,,,,,,,,,,,,,,,,,#F989A2,None,None,None,514.454126358032,reading_bl_training_text,32,0,Reading_Baseline_training_click,None,Orchester,,,,,,,,,,,,,,,,,,,,,,MA01,no,2024-08-22_08h07.10.569,EXNAT_3_training,2024.1.0,2024-08-22 08h07.51.867027 +0200
,,,,,,0,0,0,0,,,,,,,,,,,,,,,,,,,,,,,,,,,,,#D292F3,None,None,None,532.700061798096,reading_bl_training_text,33,0,Reading_Baseline_training_click,None,zur,,,,,,,,,,,,,,,,,,,,,,MA01,no,2024-08-22_08h07.10.569,EXNAT_3_training,2024.1.0,2024-08-22 08h07.51.867027 +0200
,,,,,,0,0,0,0,,,,,,,,,,,,,,,,,,,,,,,,,,,,,#2AB7EF,None,None,None,464.426994323731,reading_bl_training_text,34,0,Reading_Baseline_training_click,None,Deckshow,,,,,,,,,,,,,,,,,,,,,,MA01,no,2024-08-22_08h07.10.569,EXNAT_3_training,2024.1.0,2024-08-22 08h07.51.867027 +0200
,,,,,,0,0,0,0,,,,,,,,,,,,,,,,,,,,,,,,,,,,,#2AB7EF,None,None,None,498.69704246521,reading_bl_training_text,35,0,Reading_Baseline_training_click,None,aufspielte.,,,,,,,,,,,,,,,,,,,,,,MA01,no,2024-08-22_08h07.10.569,EXNAT_3_training,2024.1.0,2024-08-22 08h07.51.867027 +0200
,,,,,,0,0,0,0,,,,,,,,,,,,,,,,,,,,,,,,,,,,,#F989A2,None,None,None,548.689842224121,reading_bl_training_text,36,0,Reading_Baseline_training_click,None,Abseits,,,,,,,,,,,,,,,,,,,,,,MA01,no,2024-08-22_08h07.10.569,EXNAT_3_training,2024.1.0,2024-08-22 08h07.51.867027 +0200
,,,,,,0,0,0,0,,,,,,,,,,,,,,,,,,,,,,,,,,,,,#D292F3,None,None,None,499.067068099976,reading_bl_training_text,37,0,Reading_Baseline_training_click,None,des,,,,,,,,,,,,,,,,,,,,,,MA01,no,2024-08-22_08h07.10.569,EXNAT_3_training,2024.1.0,2024-08-22 08h07.51.867027 +0200
,,,,,,0,0,0,0,,,,,,,,,,,,,,,,,,,,,,,,,,,,,#88BA3F,None,None,None,397.644996643066,reading_bl_training_text,38,0,Reading_Baseline_training_click,None,Trubels,,,,,,,,,,,,,,,,,,,,,,MA01,no,2024-08-22_08h07.10.569,EXNAT_3_training,2024.1.0,2024-08-22 08h07.51.867027 +0200
,,,,,,0,0,0,0,,,,,,,,,,,,,,,,,,,,,,,,,,,,,#F989A2,None,None,None,515.814065933228,reading_bl_training_text,39,0,Reading_Baseline_training_click,None,bemerkten,,,,,,,,,,,,,,,,,,,,,,MA01,no,2024-08-22_08h07.10.569,EXNAT_3_training,2024.1.0,2024-08-22 08h07.51.867027 +0200
,,,,,,0,0,0,0,,,,,,,,,,,,,,,,,,,,,,,,,,,,,#F989A2,None,None,None,498.541116714478,reading_bl_training_text,40,0,Reading_Baseline_training_click,None,wir,,,,,,,,,,,,,,,,,,,,,,MA01,no,2024-08-22_08h07.10.569,EXNAT_3_training,2024.1.0,2024-08-22 08h07.51.867027 +0200
,,,,,,0,0,0,0,,,,,,,,,,,,,,,,,,,,,,,,,,,,,#2AB7EF,None,None,None,581.161022186279,reading_bl_training_text,41,0,Reading_Baseline_training_click,None,Blitzlichter:,,,,,,,,,,,,,,,,,,,,,,MA01,no,2024-08-22_08h07.10.569,EXNAT_3_training,2024.1.0,2024-08-22 08h07.51.867027 +0200
,,,,,,0,0,0,0,,,,,,,,,,,,,,,,,,,,,,,,,,,,,#D292F3,None,None,None,531.668186187744,reading_bl_training_text,42,0,Reading_Baseline_training_click,None,Reporter,,,,,,,,,,,,,,,,,,,,,,MA01,no,2024-08-22_08h07.10.569,EXNAT_3_training,2024.1.0,2024-08-22 08h07.51.867027 +0200
,,,,,,0,0,0,0,,,,,,,,,,,,,,,,,,,,,,,,,,,,,#D292F3,None,None,None,516.091108322144,reading_bl_training_text,43,0,Reading_Baseline_training_click,None,hatten,,,,,,,,,,,,,,,,,,,,,,MA01,no,2024-08-22_08h07.10.569,EXNAT_3_training,2024.1.0,2024-08-22 08h07.51.867027 +0200
,,,,,,0,0,0,0,,,,,,,,,,,,,,,,,,,,,,,,,,,,,#2AB7EF,None,None,None,448.413848876953,reading_bl_training_text,44,0,Reading_Baseline_training_click,None,den,,,,,,,,,,,,,,,,,,,,,,MA01,no,2024-08-22_08h07.10.569,EXNAT_3_training,2024.1.0,2024-08-22 08h07.51.867027 +0200
,,,,,,0,0,0,0,,,,,,,,,,,,,,,,,,,,,,,,,,,,,#2AB7EF,None,None,None,498.166084289551,reading_bl_training_text,45,0,Reading_Baseline_training_click,None,Weltschachmeister,,,,,,,,,,,,,,,,,,,,,,MA01,no,2024-08-22_08h07.10.569,EXNAT_3_training,2024.1.0,2024-08-22 08h07.51.867027 +0200
,,,,,,0,0,0,0,,,,,,,,,,,,,,,,,,,,,,,,,,,,,#F989A2,None,None,None,566.153049468994,reading_bl_training_text,46,0,Reading_Baseline_training_click,None,Mirko,,,,,,,,,,,,,,,,,,,,,,MA01,no,2024-08-22_08h07.10.569,EXNAT_3_training,2024.1.0,2024-08-22 08h07.51.867027 +0200
,,,,,,0,0,0,0,,,,,,,,,,,,,,,,,,,,,,,,,,,,,#88BA3F,None,None,None,448.050022125244,reading_bl_training_text,47,0,Reading_Baseline_training_click,None,"Czentovic,",,,,,,,,,,,,,,,,,,,,,,MA01,no,2024-08-22_08h07.10.569,EXNAT_3_training,2024.1.0,2024-08-22 08h07.51.867027 +0200
,,,,,,0,0,0,0,,,,,,,,,,,,,,,,,,,,,,,,,,,,,#88BA3F,None,None,None,564.962863922119,reading_bl_training_text,48,0,Reading_Baseline_training_click,None,der,,,,,,,,,,,,,,,,,,,,,,MA01,no,2024-08-22_08h07.10.569,EXNAT_3_training,2024.1.0,2024-08-22 08h07.51.867027 +0200
,,,,,,0,0,0,0,,,,,,,,,,,,,,,,,,,,,,,,,,,,,#88BA3F,None,None,None,499.384880065918,reading_bl_training_text,49,0,Reading_Baseline_training_click,None,nach,,,,,,,,,,,,,,,,,,,,,,MA01,no,2024-08-22_08h07.10.569,EXNAT_3_training,2024.1.0,2024-08-22 08h07.51.867027 +0200
,,,,,,0,0,0,0,,,,,,,,,,,,,,,,,,,,,,,,,,,,,#F989A2,None,None,None,498.527050018311,reading_bl_training_text,50,0,Reading_Baseline_training_click,None,Turnieren,,,,,,,,,,,,,,,,,,,,,,MA01,no,2024-08-22_08h07.10.569,EXNAT_3_training,2024.1.0,2024-08-22 08h07.51.867027 +0200
,,,,,,0,0,0,0,,,,,,,,,,,,,,,,,,,,,,,,,,,,,#88BA3F,None,None,None,549.076795578003,reading_bl_training_text,51,0,Reading_Baseline_training_click,None,in,,,,,,,,,,,,,,,,,,,,,,MA01,no,2024-08-22_08h07.10.569,EXNAT_3_training,2024.1.0,2024-08-22 08h07.51.867027 +0200
,,,,,,0,0,0,0,,,,,,,,,,,,,,,,,,,,,,,,,,,,,#88BA3F,None,None,None,498.280048370361,reading_bl_training_text,52,0,Reading_Baseline_training_click,None,Amerika,,,,,,,,,,,,,,,,,,,,,,MA01,no,2024-08-22_08h07.10.569,EXNAT_3_training,2024.1.0,2024-08-22 08h07.51.867027 +0200
,,,,,,0,0,0,0,,,,,,,,,,,,,,,,,,,,,,,,,,,,,#88BA3F,None,None,None,432.090997695923,reading_bl_training_text,53,0,Reading_Baseline_training_click,None,nun,,,,,,,,,,,,,,,,,,,,,,MA01,no,2024-08-22_08h07.10.569,EXNAT_3_training,2024.1.0,2024-08-22 08h07.51.867027 +0200
,,,,,,0,0,0,0,,,,,,,,,,,,,,,,,,,,,,,,,,,,,#F989A2,None,None,None,515.620946884155,reading_bl_training_text,54,0,Reading_Baseline_training_click,None,nach,,,,,,,,,,,,,,,,,,,,,,MA01,no,2024-08-22_08h07.10.569,EXNAT_3_training,2024.1.0,2024-08-22 08h07.51.867027 +0200
,,,,,,0,0,0,0,,,,,,,,,,,,,,,,,,,,,,,,,,,,,#2AB7EF,None,None,None,415.22479057312,reading_bl_training_text,55,0,Reading_Baseline_training_click,None,Argentinien,,,,,,,,,,,,,,,,,,,,,,MA01,no,2024-08-22_08h07.10.569,EXNAT_3_training,2024.1.0,2024-08-22 08h07.51.867027 +0200
,,,,,,0,0,0,0,,,,,,,,,,,,,,,,,,,,,,,,,,,,,#D292F3,None,None,None,465.368032455444,reading_bl_training_text,56,0,Reading_Baseline_training_click,None,"reiste,",,,,,,,,,,,,,,,,,,,,,,MA01,no,2024-08-22_08h07.10.569,EXNAT_3_training,2024.1.0,2024-08-22 08h07.51.867027 +0200
,,,,,,0,0,0,0,,,,,,,,,,,,,,,,,,,,,,,,,,,,,#2AB7EF,None,None,None,498.387098312378,reading_bl_training_text,57,0,Reading_Baseline_training_click,None,für,,,,,,,,,,,,,,,,,,,,,,MA01,no,2024-08-22_08h07.10.569,EXNAT_3_training,2024.1.0,2024-08-22 08h07.51.867027 +0200
,,,,,,0,0,0,0,,,,,,,,,,,,,,,,,,,,,,,,,,,,,#D292F3,None,None,None,415.446996688843,reading_bl_training_text,58,0,Reading_Baseline_training_click,None,ein,,,,,,,,,,,,,,,,,,,,,,MA01,no,2024-08-22_08h07.10.569,EXNAT_3_training,2024.1.0,2024-08-22 08h07.51.867027 +0200
,,,,,,0,0,0,0,,,,,,,,,,,,,,,,,,,,,,,,,,,,,#F989A2,None,None,None,448.177099227905,reading_bl_training_text,59,0,Reading_Baseline_training_click,None,Interview,,,,,,,,,,,,,,,,,,,,,,MA01,no,2024-08-22_08h07.10.569,EXNAT_3_training,2024.1.0,2024-08-22 08h07.51.867027 +0200
,,,,,,0,0,0,0,,,,,,,,,,,,,,,,,,,,,,,,,,,,,#2AB7EF,None,None,None,448.265075683594,reading_bl_training_text,60,0,Reading_Baseline_training_click,None,erwischt.,,,,,,,,,,,,,,,,,,,,,,MA01,no,2024-08-22_08h07.10.569,EXNAT_3_training,2024.1.0,2024-08-22 08h07.51.867027 +0200
,,,,,,0,0,0,0,,,,,,,,,,,,,,,,,,,,,,,,,,,,,,,,,,reading_bl_training_text,,,Reading_Baseline_training_click,,,202.607298135757,Q1,NA,NA,False,1,None,,,,,,,,,,,,,,,MA01,no,2024-08-22_08h07.10.569,EXNAT_3_training,2024.1.0,2024-08-22 08h07.51.867027 +0200
,,,,,,0,0,0,0,,,,,,,,,,,,,,,,,,,,,,,,,,,,,,,,,,reading_bl_training_text,,,Reading_Baseline_training_click,,,212.663018941879,Q2,1,a,False,1,None,,,,,,,,,,,,,,,MA01,no,2024-08-22_08h07.10.569,EXNAT_3_training,2024.1.0,2024-08-22 08h07.51.867027 +0200
,,,,,,0,0,0,0,,,,,,,,,,,,,,,,,,,,,,,,,,,,,,,,,,reading_bl_training_text,,,Reading_Baseline_training_click,,,216.414762020111,Q3,1,a,True,1,None,,,,,,,,,,,,,,,MA01,no,2024-08-22_08h07.10.569,EXNAT_3_training,2024.1.0,2024-08-22 08h07.51.867027 +0200
,,,,,,0,0,0,0,,,,,,,,,,,,,,,,,,,,,,,,,,,,,,,,,,,,,,,,,,,,,,,220.1079621315,220.107980966568,220.147354125977,220.14736700058,220.15690612793,220.156913995743,220.174029111862,,,,,,,,MA01,no,2024-08-22_08h07.10.569,EXNAT_3_training,2024.1.0,2024-08-22 08h07.51.867027 +0200
,,,,,,1,0,1,0,220.189705133438,,,,,,,,,,,,,,,,,,,,,,,,,220.174329996109,220.189738988876,220.189744949341,#88BA3F,None,None,None,864.712953567505,text_04,1,1,Reading_Baseline_main_click,None,Manche,,,,,,,,,,,,,,,,,,,,,,MA01,no,2024-08-22_08h07.10.569,EXNAT_3_training,2024.1.0,2024-08-22 08h07.51.867027 +0200
,,,,,,1,0,1,0,,,,,,,,,,,,,,,,,,,,,,,,,,,,,#D292F3,None,None,None,381.388902664185,text_04,2,1,Reading_Baseline_main_click,None,Orte,,,,,,,,,,,,,,,,,,,,,,MA01,no,2024-08-22_08h07.10.569,EXNAT_3_training,2024.1.0,2024-08-22 08h07.51.867027 +0200
,,,,,,1,0,1,0,,,,,,,,,,,,,,,,,,,,,,,,,,,,,#2AB7EF,None,None,None,365.928173065186,text_04,3,1,Reading_Baseline_main_click,None,sind,,,,,,,,,,,,,,,,,,,,,,MA01,no,2024-08-22_08h07.10.569,EXNAT_3_training,2024.1.0,2024-08-22 08h07.51.867027 +0200
,,,,,,1,0,1,0,,,,,,,,,,,,,,,,,,,,,,,,,,,,,#D292F3,None,None,None,499.201059341431,text_04,4,1,Reading_Baseline_main_click,None,nur,,,,,,,,,,,,,,,,,,,,,,MA01,no,2024-08-22_08h07.10.569,EXNAT_3_training,2024.1.0,2024-08-22 08h07.51.867027 +0200
,,,,,,1,0,1,0,,,,,,,,,,,,,,,,,,,,,,,,,,,,,#F989A2,None,None,None,298.230171203613,text_04,5,1,Reading_Baseline_main_click,None,aus,,,,,,,,,,,,,,,,,,,,,,MA01,no,2024-08-22_08h07.10.569,EXNAT_3_training,2024.1.0,2024-08-22 08h07.51.867027 +0200
,,,,,,1,0,1,0,,,,,,,,,,,,,,,,,,,,,,,,,,,,,#2AB7EF,None,None,None,332.549810409546,text_04,6,1,Reading_Baseline_main_click,None,der,,,,,,,,,,,,,,,,,,,,,,MA01,no,2024-08-22_08h07.10.569,EXNAT_3_training,2024.1.0,2024-08-22 08h07.51.867027 +0200
,,,,,,1,0,1,0,,,,,,,,,,,,,,,,,,,,,,,,,,,,,#D292F3,None,None,None,281.476974487305,text_04,7,1,Reading_Baseline_main_click,None,Luft,,,,,,,,,,,,,,,,,,,,,,MA01,no,2024-08-22_08h07.10.569,EXNAT_3_training,2024.1.0,2024-08-22 08h07.51.867027 +0200
,,,,,,1,0,1,0,,,,,,,,,,,,,,,,,,,,,,,,,,,,,#F989A2,None,None,None,347.821950912476,text_04,8,1,Reading_Baseline_main_click,None,wirklich,,,,,,,,,,,,,,,,,,,,,,MA01,no,2024-08-22_08h07.10.569,EXNAT_3_training,2024.1.0,2024-08-22 08h07.51.867027 +0200
,,,,,,1,0,1,0,,,,,,,,,,,,,,,,,,,,,,,,,,,,,#D292F3,None,None,None,313.809156417847,text_04,9,1,Reading_Baseline_main_click,None,zugänglich.,,,,,,,,,,,,,,,,,,,,,,MA01,no,2024-08-22_08h07.10.569,EXNAT_3_training,2024.1.0,2024-08-22 08h07.51.867027 +0200
,,,,,,1,0,1,0,,,,,,,,,,,,,,,,,,,,,,,,,,,,,#88BA3F,None,None,None,331.105947494507,text_04,10,1,Reading_Baseline_main_click,None,Bertus,,,,,,,,,,,,,,,,,,,,,,MA01,no,2024-08-22_08h07.10.569,EXNAT_3_training,2024.1.0,2024-08-22 08h07.51.867027 +0200
,,,,,,1,0,1,0,,,,,,,,,,,,,,,,,,,,,,,,,,,,,#2AB7EF,None,None,None,531.507968902588,text_04,11,1,Reading_Baseline_main_click,None,Schoeman,,,,,,,,,,,,,,,,,,,,,,MA01,no,2024-08-22_08h07.10.569,EXNAT_3_training,2024.1.0,2024-08-22 08h07.51.867027 +0200
,,,,,,1,0,1,0,,,,,,,,,,,,,,,,,,,,,,,,,,,,,#88BA3F,None,None,None,382.512807846069,text_04,12,1,Reading_Baseline_main_click,None,fliegt,,,,,,,,,,,,,,,,,,,,,,MA01,no,2024-08-22_08h07.10.569,EXNAT_3_training,2024.1.0,2024-08-22 08h07.51.867027 +0200
,,,,,,1,0,1,0,,,,,,,,,,,,,,,,,,,,,,,,,,,,,#D292F3,None,None,None,382.14898109436,text_04,13,1,Reading_Baseline_main_click,None,oft,,,,,,,,,,,,,,,,,,,,,,MA01,no,2024-08-22_08h07.10.569,EXNAT_3_training,2024.1.0,2024-08-22 08h07.51.867027 +0200
,,,,,,1,0,1,0,,,,,,,,,,,,,,,,,,,,,,,,,,,,,#D292F3,None,None,None,365.479946136475,text_04,14,1,Reading_Baseline_main_click,None,mit,,,,,,,,,,,,,,,,,,,,,,MA01,no,2024-08-22_08h07.10.569,EXNAT_3_training,2024.1.0,2024-08-22 08h07.51.867027 +0200
,,,,,,1,0,1,0,,,,,,,,,,,,,,,,,,,,,,,,,,,,,#D292F3,None,None,None,281.936168670654,text_04,15,1,Reading_Baseline_main_click,None,seinem,,,,,,,,,,,,,,,,,,,,,,MA01,no,2024-08-22_08h07.10.569,EXNAT_3_training,2024.1.0,2024-08-22 08h07.51.867027 +0200
,,,,,,1,0,1,0,,,,,,,,,,,,,,,,,,,,,,,,,,,,,#F989A2,None,None,None,314.810991287231,text_04,16,1,Reading_Baseline_main_click,None,Flugzeug,,,,,,,,,,,,,,,,,,,,,,MA01,no,2024-08-22_08h07.10.569,EXNAT_3_training,2024.1.0,2024-08-22 08h07.51.867027 +0200
,,,,,,1,0,1,0,,,,,,,,,,,,,,,,,,,,,,,,,,,,,#2AB7EF,None,None,None,347.553014755249,text_04,17,1,Reading_Baseline_main_click,None,über,,,,,,,,,,,,,,,,,,,,,,MA01,no,2024-08-22_08h07.10.569,EXNAT_3_training,2024.1.0,2024-08-22 08h07.51.867027 +0200
,,,,,,1,0,1,0,,,,,,,,,,,,,,,,,,,,,,,,,,,,,#88BA3F,None,None,None,348.777055740356,text_04,18,1,Reading_Baseline_main_click,None,die,,,,,,,,,,,,,,,,,,,,,,MA01,no,2024-08-22_08h07.10.569,EXNAT_3_training,2024.1.0,2024-08-22 08h07.51.867027 +0200
,,,,,,1,0,1,0,,,,,,,,,,,,,,,,,,,,,,,,,,,,,#F989A2,None,None,None,414.790153503418,text_04,19,1,Reading_Baseline_main_click,None,"unwirtliche,",,,,,,,,,,,,,,,,,,,,,,MA01,no,2024-08-22_08h07.10.569,EXNAT_3_training,2024.1.0,2024-08-22 08h07.51.867027 +0200
,,,,,,1,0,1,0,,,,,,,,,,,,,,,,,,,,,,,,,,,,,#2AB7EF,None,None,None,398.13494682312,text_04,20,1,Reading_Baseline_main_click,None,aber,,,,,,,,,,,,,,,,,,,,,,MA01,no,2024-08-22_08h07.10.569,EXNAT_3_training,2024.1.0,2024-08-22 08h07.51.867027 +0200
,,,,,,1,0,1,0,,,,,,,,,,,,,,,,,,,,,,,,,,,,,#88BA3F,None,None,None,399.155855178833,text_04,21,1,Reading_Baseline_main_click,None,trotzdem,,,,,,,,,,,,,,,,,,,,,,MA01,no,2024-08-22_08h07.10.569,EXNAT_3_training,2024.1.0,2024-08-22 08h07.51.867027 +0200
,,,,,,1,0,1,0,,,,,,,,,,,,,,,,,,,,,,,,,,,,,#88BA3F,None,None,None,448.126077651978,text_04,22,1,Reading_Baseline_main_click,None,wunderschöne,,,,,,,,,,,,,,,,,,,,,,MA01,no,2024-08-22_08h07.10.569,EXNAT_3_training,2024.1.0,2024-08-22 08h07.51.867027 +0200
,,,,,,1,0,1,0,,,,,,,,,,,,,,,,,,,,,,,,,,,,,#F989A2,None,None,None,314.268112182617,text_04,23,1,Reading_Baseline_main_click,None,Küste,,,,,,,,,,,,,,,,,,,,,,MA01,no,2024-08-22_08h07.10.569,EXNAT_3_training,2024.1.0,2024-08-22 08h07.51.867027 +0200
,,,,,,1,0,1,0,,,,,,,,,,,,,,,,,,,,,,,,,,,,,#2AB7EF,None,None,None,464.436054229736,text_04,24,1,Reading_Baseline_main_click,None,Namibias.,,,,,,,,,,,,,,,,,,,,,,MA01,no,2024-08-22_08h07.10.569,EXNAT_3_training,2024.1.0,2024-08-22 08h07.51.867027 +0200
,,,,,,1,0,1,0,,,,,,,,,,,,,,,,,,,,,,,,,,,,,#D292F3,None,None,None,498.657941818237,text_04,25,1,Reading_Baseline_main_click,None,Er,,,,,,,,,,,,,,,,,,,,,,MA01,no,2024-08-22_08h07.10.569,EXNAT_3_training,2024.1.0,2024-08-22 08h07.51.867027 +0200
,,,,,,1,0,1,0,,,,,,,,,,,,,,,,,,,,,,,,,,,,,#D292F3,None,None,None,298.386096954346,text_04,26,1,Reading_Baseline_main_click,None,zeigt,,,,,,,,,,,,,,,,,,,,,,MA01,no,2024-08-22_08h07.10.569,EXNAT_3_training,2024.1.0,2024-08-22 08h07.51.867027 +0200
,,,,,,1,0,1,0,,,,,,,,,,,,,,,,,,,,,,,,,,,,,#88BA3F,None,None,None,348.567008972168,text_04,27,1,Reading_Baseline_main_click,None,Touristen,,,,,,,,,,,,,,,,,,,,,,MA01,no,2024-08-22_08h07.10.569,EXNAT_3_training,2024.1.0,2024-08-22 08h07.51.867027 +0200
,,,,,,1,0,1,0,,,,,,,,,,,,,,,,,,,,,,,,,,,,,#2AB7EF,None,None,None,314.89109992981,text_04,28,1,Reading_Baseline_main_click,None,die,,,,,,,,,,,,,,,,,,,,,,MA01,no,2024-08-22_08h07.10.569,EXNAT_3_training,2024.1.0,2024-08-22 08h07.51.867027 +0200
,,,,,,1,0,1,0,,,,,,,,,,,,,,,,,,,,,,,,,,,,,#2AB7EF,None,None,None,415.540933609009,text_04,29,1,Reading_Baseline_main_click,None,beeindruckenden,,,,,,,,,,,,,,,,,,,,,,MA01,no,2024-08-22_08h07.10.569,EXNAT_3_training,2024.1.0,2024-08-22 08h07.51.867027 +0200
,,,,,,1,0,1,0,,,,,,,,,,,,,,,,,,,,,,,,,,,,,#F989A2,None,None,None,414.822101593018,text_04,30,1,Reading_Baseline_main_click,None,Schiffswracks,,,,,,,,,,,,,,,,,,,,,,MA01,no,2024-08-22_08h07.10.569,EXNAT_3_training,2024.1.0,2024-08-22 08h07.51.867027 +0200
,,,,,,1,0,1,0,,,,,,,,,,,,,,,,,,,,,,,,,,,,,#F989A2,None,None,None,365.888118743896,text_04,31,1,Reading_Baseline_main_click,None,und,,,,,,,,,,,,,,,,,,,,,,MA01,no,2024-08-22_08h07.10.569,EXNAT_3_training,2024.1.0,2024-08-22 08h07.51.867027 +0200
,,,,,,1,0,1,0,,,,,,,,,,,,,,,,,,,,,,,,,,,,,#2AB7EF,None,None,None,331.769943237305,text_04,32,1,Reading_Baseline_main_click,None,die,,,,,,,,,,,,,,,,,,,,,,MA01,no,2024-08-22_08h07.10.569,EXNAT_3_training,2024.1.0,2024-08-22 08h07.51.867027 +0200
,,,,,,1,0,1,0,,,,,,,,,,,,,,,,,,,,,,,,,,,,,#88BA3F,None,None,None,397.057056427002,text_04,33,1,Reading_Baseline_main_click,None,einzigartigen,,,,,,,,,,,,,,,,,,,,,,MA01,no,2024-08-22_08h07.10.569,EXNAT_3_training,2024.1.0,2024-08-22 08h07.51.867027 +0200
,,,,,,1,0,1,0,,,,,,,,,,,,,,,,,,,,,,,,,,,,,#F989A2,None,None,None,381.896018981934,text_04,34,1,Reading_Baseline_main_click,None,Landschaften,,,,,,,,,,,,,,,,,,,,,,MA01,no,2024-08-22_08h07.10.569,EXNAT_3_training,2024.1.0,2024-08-22 08h07.51.867027 +0200
,,,,,,1,0,1,0,,,,,,,,,,,,,,,,,,,,,,,,,,,,,#88BA3F,None,None,None,515.24806022644,text_04,35,1,Reading_Baseline_main_click,None,von,,,,,,,,,,,,,,,,,,,,,,MA01,no,2024-08-22_08h07.10.569,EXNAT_3_training,2024.1.0,2024-08-22 08h07.51.867027 +0200
,,,,,,1,0,1,0,,,,,,,,,,,,,,,,,,,,,,,,,,,,,#D292F3,None,None,None,348.462104797363,text_04,36,1,Reading_Baseline_main_click,None,oben.,,,,,,,,,,,,,,,,,,,,,,MA01,no,2024-08-22_08h07.10.569,EXNAT_3_training,2024.1.0,2024-08-22 08h07.51.867027 +0200
,,,,,,1,0,1,0,,,,,,,,,,,,,,,,,,,,,,,,,,,,,#2AB7EF,None,None,None,617.110967636108,text_04,37,1,Reading_Baseline_main_click,None,Vom,,,,,,,,,,,,,,,,,,,,,,MA01,no,2024-08-22_08h07.10.569,EXNAT_3_training,2024.1.0,2024-08-22 08h07.51.867027 +0200
,,,,,,1,0,1,0,,,,,,,,,,,,,,,,,,,,,,,,,,,,,#2AB7EF,None,None,None,331.853151321411,text_04,38,1,Reading_Baseline_main_click,None,Flugzeug,,,,,,,,,,,,,,,,,,,,,,MA01,no,2024-08-22_08h07.10.569,EXNAT_3_training,2024.1.0,2024-08-22 08h07.51.867027 +0200
,,,,,,1,0,1,0,,,,,,,,,,,,,,,,,,,,,,,,,,,,,#D292F3,None,None,None,264.709949493408,text_04,39,1,Reading_Baseline_main_click,None,aus,,,,,,,,,,,,,,,,,,,,,,MA01,no,2024-08-22_08h07.10.569,EXNAT_3_training,2024.1.0,2024-08-22 08h07.51.867027 +0200
,,,,,,1,0,1,0,,,,,,,,,,,,,,,,,,,,,,,,,,,,,#F989A2,None,None,None,515.866994857788,text_04,40,1,Reading_Baseline_main_click,None,sieht,,,,,,,,,,,,,,,,,,,,,,MA01,no,2024-08-22_08h07.10.569,EXNAT_3_training,2024.1.0,2024-08-22 08h07.51.867027 +0200
,,,,,,1,0,1,0,,,,,,,,,,,,,,,,,,,,,,,,,,,,,#2AB7EF,None,None,None,265.30385017395,text_04,41,1,Reading_Baseline_main_click,None,man,,,,,,,,,,,,,,,,,,,,,,MA01,no,2024-08-22_08h07.10.569,EXNAT_3_training,2024.1.0,2024-08-22 08h07.51.867027 +0200
,,,,,,1,0,1,0,,,,,,,,,,,,,,,,,,,,,,,,,,,,,#D292F3,None,None,None,382.226943969727,text_04,42,1,Reading_Baseline_main_click,None,die,,,,,,,,,,,,,,,,,,,,,,MA01,no,2024-08-22_08h07.10.569,EXNAT_3_training,2024.1.0,2024-08-22 08h07.51.867027 +0200
,,,,,,1,0,1,0,,,,,,,,,,,,,,,,,,,,,,,,,,,,,#2AB7EF,None,None,None,381.882190704346,text_04,43,1,Reading_Baseline_main_click,None,Küste,,,,,,,,,,,,,,,,,,,,,,MA01,no,2024-08-22_08h07.10.569,EXNAT_3_training,2024.1.0,2024-08-22 08h07.51.867027 +0200
,,,,,,1,0,1,0,,,,,,,,,,,,,,,,,,,,,,,,,,,,,#D292F3,None,None,None,415.598869323731,text_04,44,1,Reading_Baseline_main_click,None,des,,,,,,,,,,,,,,,,,,,,,,MA01,no,2024-08-22_08h07.10.569,EXNAT_3_training,2024.1.0,2024-08-22 08h07.51.867027 +0200
,,,,,,1,0,1,0,,,,,,,,,,,,,,,,,,,,,,,,,,,,,#88BA3F,None,None,None,398.50902557373,text_04,45,1,Reading_Baseline_main_click,None,"Landes,",,,,,,,,,,,,,,,,,,,,,,MA01,no,2024-08-22_08h07.10.569,EXNAT_3_training,2024.1.0,2024-08-22 08h07.51.867027 +0200
,,,,,,1,0,1,0,,,,,,,,,,,,,,,,,,,,,,,,,,,,,#F989A2,None,None,None,515.791893005371,text_04,46,1,Reading_Baseline_main_click,None,die,,,,,,,,,,,,,,,,,,,,,,MA01,no,2024-08-22_08h07.10.569,EXNAT_3_training,2024.1.0,2024-08-22 08h07.51.867027 +0200
,,,,,,1,0,1,0,,,,,,,,,,,,,,,,,,,,,,,,,,,,,#88BA3F,None,None,None,315.326929092407,text_04,47,1,Reading_Baseline_main_click,None,sich,,,,,,,,,,,,,,,,,,,,,,MA01,no,2024-08-22_08h07.10.569,EXNAT_3_training,2024.1.0,2024-08-22 08h07.51.867027 +0200
,,,,,,1,0,1,0,,,,,,,,,,,,,,,,,,,,,,,,,,,,,#88BA3F,None,None,None,314.424991607666,text_04,48,1,Reading_Baseline_main_click,None,von,,,,,,,,,,,,,,,,,,,,,,MA01,no,2024-08-22_08h07.10.569,EXNAT_3_training,2024.1.0,2024-08-22 08h07.51.867027 +0200
,,,,,,1,0,1,0,,,,,,,,,,,,,,,,,,,,,,,,,,,,,#2AB7EF,None,None,None,315.625190734863,text_04,49,1,Reading_Baseline_main_click,None,Südafrika,,,,,,,,,,,,,,,,,,,,,,MA01,no,2024-08-22_08h07.10.569,EXNAT_3_training,2024.1.0,2024-08-22 08h07.51.867027 +0200
,,,,,,1,0,1,0,,,,,,,,,,,,,,,,,,,,,,,,,,,,,#88BA3F,None,None,None,350.182056427002,text_04,50,1,Reading_Baseline_main_click,None,bis,,,,,,,,,,,,,,,,,,,,,,MA01,no,2024-08-22_08h07.10.569,EXNAT_3_training,2024.1.0,2024-08-22 08h07.51.867027 +0200
,,,,,,1,0,1,0,,,,,,,,,,,,,,,,,,,,,,,,,,,,,#D292F3,None,None,None,330.540895462036,text_04,51,1,Reading_Baseline_main_click,None,nach,,,,,,,,,,,,,,,,,,,,,,MA01,no,2024-08-22_08h07.10.569,EXNAT_3_training,2024.1.0,2024-08-22 08h07.51.867027 +0200
,,,,,,1,0,1,0,,,,,,,,,,,,,,,,,,,,,,,,,,,,,#2AB7EF,None,None,None,381.425142288208,text_04,52,1,Reading_Baseline_main_click,None,Angola,,,,,,,,,,,,,,,,,,,,,,MA01,no,2024-08-22_08h07.10.569,EXNAT_3_training,2024.1.0,2024-08-22 08h07.51.867027 +0200
,,,,,,1,0,1,0,,,,,,,,,,,,,,,,,,,,,,,,,,,,,#F989A2,None,None,None,365.233898162842,text_04,53,1,Reading_Baseline_main_click,None,erstreckt.,,,,,,,,,,,,,,,,,,,,,,MA01,no,2024-08-22_08h07.10.569,EXNAT_3_training,2024.1.0,2024-08-22 08h07.51.867027 +0200
,,,,,,1,0,1,0,,,,,,,,,,,,,,,,,,,,,,,,,,,,,#D292F3,None,None,None,398.672103881836,text_04,54,1,Reading_Baseline_main_click,None,Auch,,,,,,,,,,,,,,,,,,,,,,MA01,no,2024-08-22_08h07.10.569,EXNAT_3_training,2024.1.0,2024-08-22 08h07.51.867027 +0200
,,,,,,1,0,1,0,,,,,,,,,,,,,,,,,,,,,,,,,,,,,#2AB7EF,None,None,None,398.152112960815,text_04,55,1,Reading_Baseline_main_click,None,verschiedene,,,,,,,,,,,,,,,,,,,,,,MA01,no,2024-08-22_08h07.10.569,EXNAT_3_training,2024.1.0,2024-08-22 08h07.51.867027 +0200
,,,,,,1,0,1,0,,,,,,,,,,,,,,,,,,,,,,,,,,,,,#88BA3F,None,None,None,348.001956939697,text_04,56,1,Reading_Baseline_main_click,None,"Tiere,",,,,,,,,,,,,,,,,,,,,,,MA01,no,2024-08-22_08h07.10.569,EXNAT_3_training,2024.1.0,2024-08-22 08h07.51.867027 +0200
,,,,,,1,0,1,0,,,,,,,,,,,,,,,,,,,,,,,,,,,,,#D292F3,None,None,None,382.366895675659,text_04,57,1,Reading_Baseline_main_click,None,wie,,,,,,,,,,,,,,,,,,,,,,MA01,no,2024-08-22_08h07.10.569,EXNAT_3_training,2024.1.0,2024-08-22 08h07.51.867027 +0200
,,,,,,1,0,1,0,,,,,,,,,,,,,,,,,,,,,,,,,,,,,#88BA3F,None,None,None,432.265043258667,text_04,58,1,Reading_Baseline_main_click,None,die,,,,,,,,,,,,,,,,,,,,,,MA01,no,2024-08-22_08h07.10.569,EXNAT_3_training,2024.1.0,2024-08-22 08h07.51.867027 +0200
,,,,,,1,0,1,0,,,,,,,,,,,,,,,,,,,,,,,,,,,,,#F989A2,None,None,None,231.505155563354,text_04,59,1,Reading_Baseline_main_click,None,berühmten,,,,,,,,,,,,,,,,,,,,,,MA01,no,2024-08-22_08h07.10.569,EXNAT_3_training,2024.1.0,2024-08-22 08h07.51.867027 +0200
,,,,,,1,0,1,0,,,,,,,,,,,,,,,,,,,,,,,,,,,,,#F989A2,None,None,None,381.8678855896,text_04,60,1,Reading_Baseline_main_click,None,Flamingos,,,,,,,,,,,,,,,,,,,,,,MA01,no,2024-08-22_08h07.10.569,EXNAT_3_training,2024.1.0,2024-08-22 08h07.51.867027 +0200
,,,,,,1,0,1,0,,,,,,,,,,,,,,,,,,,,,,,,,,,,,#88BA3F,None,None,None,331.400156021118,text_04,61,1,Reading_Baseline_main_click,None,von,,,,,,,,,,,,,,,,,,,,,,MA01,no,2024-08-22_08h07.10.569,EXNAT_3_training,2024.1.0,2024-08-22 08h07.51.867027 +0200
,,,,,,1,0,1,0,,,,,,,,,,,,,,,,,,,,,,,,,,,,,#2AB7EF,None,None,None,346.313953399658,text_04,62,1,Reading_Baseline_main_click,None,Conception,,,,,,,,,,,,,,,,,,,,,,MA01,no,2024-08-22_08h07.10.569,EXNAT_3_training,2024.1.0,2024-08-22 08h07.51.867027 +0200
,,,,,,1,0,1,0,,,,,,,,,,,,,,,,,,,,,,,,,,,,,#2AB7EF,None,None,None,348.226070404053,text_04,63,1,Reading_Baseline_main_click,None,Bay,,,,,,,,,,,,,,,,,,,,,,MA01,no,2024-08-22_08h07.10.569,EXNAT_3_training,2024.1.0,2024-08-22 08h07.51.867027 +0200
,,,,,,1,0,1,0,,,,,,,,,,,,,,,,,,,,,,,,,,,,,#D292F3,None,None,None,482.400178909302,text_04,64,1,Reading_Baseline_main_click,None,und,,,,,,,,,,,,,,,,,,,,,,MA01,no,2024-08-22_08h07.10.569,EXNAT_3_training,2024.1.0,2024-08-22 08h07.51.867027 +0200
,,,,,,1,0,1,0,,,,,,,,,,,,,,,,,,,,,,,,,,,,,#F989A2,None,None,None,382.1702003479,text_04,65,1,Reading_Baseline_main_click,None,die,,,,,,,,,,,,,,,,,,,,,,MA01,no,2024-08-22_08h07.10.569,EXNAT_3_training,2024.1.0,2024-08-22 08h07.51.867027 +0200
,,,,,,1,0,1,0,,,,,,,,,,,,,,,,,,,,,,,,,,,,,#D292F3,None,None,None,332.82208442688,text_04,66,1,Reading_Baseline_main_click,None,Robbenkolonien,,,,,,,,,,,,,,,,,,,,,,MA01,no,2024-08-22_08h07.10.569,EXNAT_3_training,2024.1.0,2024-08-22 08h07.51.867027 +0200
,,,,,,1,0,1,0,,,,,,,,,,,,,,,,,,,,,,,,,,,,,#2AB7EF,None,None,None,365.290880203247,text_04,67,1,Reading_Baseline_main_click,None,von,,,,,,,,,,,,,,,,,,,,,,MA01,no,2024-08-22_08h07.10.569,EXNAT_3_training,2024.1.0,2024-08-22 08h07.51.867027 +0200
,,,,,,1,0,1,0,,,,,,,,,,,,,,,,,,,,,,,,,,,,,#D292F3,None,None,None,348.50811958313,text_04,68,1,Reading_Baseline_main_click,None,Cape,,,,,,,,,,,,,,,,,,,,,,MA01,no,2024-08-22_08h07.10.569,EXNAT_3_training,2024.1.0,2024-08-22 08h07.51.867027 +0200
,,,,,,1,0,1,0,,,,,,,,,,,,,,,,,,,,,,,,,,,,,#88BA3F,None,None,None,347.236156463623,text_04,69,1,Reading_Baseline_main_click,None,Cross,,,,,,,,,,,,,,,,,,,,,,MA01,no,2024-08-22_08h07.10.569,EXNAT_3_training,2024.1.0,2024-08-22 08h07.51.867027 +0200
,,,,,,1,0,1,0,,,,,,,,,,,,,,,,,,,,,,,,,,,,,#F989A2,None,None,None,332.532167434692,text_04,70,1,Reading_Baseline_main_click,None,kann,,,,,,,,,,,,,,,,,,,,,,MA01,no,2024-08-22_08h07.10.569,EXNAT_3_training,2024.1.0,2024-08-22 08h07.51.867027 +0200
,,,,,,1,0,1,0,,,,,,,,,,,,,,,,,,,,,,,,,,,,,#F989A2,None,None,None,365.05389213562,text_04,71,1,Reading_Baseline_main_click,None,man,,,,,,,,,,,,,,,,,,,,,,MA01,no,2024-08-22_08h07.10.569,EXNAT_3_training,2024.1.0,2024-08-22 08h07.51.867027 +0200
,,,,,,1,0,1,0,,,,,,,,,,,,,,,,,,,,,,,,,,,,,#88BA3F,None,None,None,349.265813827515,text_04,72,1,Reading_Baseline_main_click,None,aus,,,,,,,,,,,,,,,,,,,,,,MA01,no,2024-08-22_08h07.10.569,EXNAT_3_training,2024.1.0,2024-08-22 08h07.51.867027 +0200
,,,,,,1,0,1,0,,,,,,,,,,,,,,,,,,,,,,,,,,,,,#F989A2,None,None,None,332.104921340942,text_04,73,1,Reading_Baseline_main_click,None,der,,,,,,,,,,,,,,,,,,,,,,MA01,no,2024-08-22_08h07.10.569,EXNAT_3_training,2024.1.0,2024-08-22 08h07.51.867027 +0200
,,,,,,1,0,1,0,,,,,,,,,,,,,,,,,,,,,,,,,,,,,#2AB7EF,None,None,None,314.085006713867,text_04,74,1,Reading_Baseline_main_click,None,Vogelperspektive,,,,,,,,,,,,,,,,,,,,,,MA01,no,2024-08-22_08h07.10.569,EXNAT_3_training,2024.1.0,2024-08-22 08h07.51.867027 +0200
,,,,,,1,0,1,0,,,,,,,,,,,,,,,,,,,,,,,,,,,,,#88BA3F,None,None,None,332.395076751709,text_04,75,1,Reading_Baseline_main_click,None,sehen.,,,,,,,,,,,,,,,,,,,,,,MA01,no,2024-08-22_08h07.10.569,EXNAT_3_training,2024.1.0,2024-08-22 08h07.51.867027 +0200
,,,,,,1,0,1,0,,,,,,,,,,,,,,,,,,,,,,,,,,,,,#88BA3F,None,None,None,348.15788269043,text_04,76,1,Reading_Baseline_main_click,None,Diese,,,,,,,,,,,,,,,,,,,,,,MA01,no,2024-08-22_08h07.10.569,EXNAT_3_training,2024.1.0,2024-08-22 08h07.51.867027 +0200
,,,,,,1,0,1,0,,,,,,,,,,,,,,,,,,,,,,,,,,,,,#F989A2,None,None,None,331.675052642822,text_04,77,1,Reading_Baseline_main_click,None,Safari,,,,,,,,,,,,,,,,,,,,,,MA01,no,2024-08-22_08h07.10.569,EXNAT_3_training,2024.1.0,2024-08-22 08h07.51.867027 +0200
,,,,,,1,0,1,0,,,,,,,,,,,,,,,,,,,,,,,,,,,,,#2AB7EF,None,None,None,314.864873886108,text_04,78,1,Reading_Baseline_main_click,None,in,,,,,,,,,,,,,,,,,,,,,,MA01,no,2024-08-22_08h07.10.569,EXNAT_3_training,2024.1.0,2024-08-22 08h07.51.867027 +0200
,,,,,,1,0,1,0,,,,,,,,,,,,,,,,,,,,,,,,,,,,,#F989A2,None,None,None,332.595825195312,text_04,79,1,Reading_Baseline_main_click,None,der,,,,,,,,,,,,,,,,,,,,,,MA01,no,2024-08-22_08h07.10.569,EXNAT_3_training,2024.1.0,2024-08-22 08h07.51.867027 +0200
,,,,,,1,0,1,0,,,,,,,,,,,,,,,,,,,,,,,,,,,,,#D292F3,None,None,None,331.548929214478,text_04,80,1,Reading_Baseline_main_click,None,Luft,,,,,,,,,,,,,,,,,,,,,,MA01,no,2024-08-22_08h07.10.569,EXNAT_3_training,2024.1.0,2024-08-22 08h07.51.867027 +0200
,,,,,,1,0,1,0,,,,,,,,,,,,,,,,,,,,,,,,,,,,,#D292F3,None,None,None,282.152891159058,text_04,81,1,Reading_Baseline_main_click,None,bietet,,,,,,,,,,,,,,,,,,,,,,MA01,no,2024-08-22_08h07.10.569,EXNAT_3_training,2024.1.0,2024-08-22 08h07.51.867027 +0200
,,,,,,1,0,1,0,,,,,,,,,,,,,,,,,,,,,,,,,,,,,#88BA3F,None,None,None,298.288106918335,text_04,82,1,Reading_Baseline_main_click,None,Touristen,,,,,,,,,,,,,,,,,,,,,,MA01,no,2024-08-22_08h07.10.569,EXNAT_3_training,2024.1.0,2024-08-22 08h07.51.867027 +0200
,,,,,,1,0,1,0,,,,,,,,,,,,,,,,,,,,,,,,,,,,,#D292F3,None,None,None,365.36693572998,text_04,83,1,Reading_Baseline_main_click,None,einen,,,,,,,,,,,,,,,,,,,,,,MA01,no,2024-08-22_08h07.10.569,EXNAT_3_training,2024.1.0,2024-08-22 08h07.51.867027 +0200
,,,,,,1,0,1,0,,,,,,,,,,,,,,,,,,,,,,,,,,,,,#2AB7EF,None,None,None,348.51598739624,text_04,84,1,Reading_Baseline_main_click,None,einzigartigen,,,,,,,,,,,,,,,,,,,,,,MA01,no,2024-08-22_08h07.10.569,EXNAT_3_training,2024.1.0,2024-08-22 08h07.51.867027 +0200
,,,,,,1,0,1,0,,,,,,,,,,,,,,,,,,,,,,,,,,,,,#D292F3,None,None,None,365.054845809937,text_04,85,1,Reading_Baseline_main_click,None,Blick,,,,,,,,,,,,,,,,,,,,,,MA01,no,2024-08-22_08h07.10.569,EXNAT_3_training,2024.1.0,2024-08-22 08h07.51.867027 +0200
,,,,,,1,0,1,0,,,,,,,,,,,,,,,,,,,,,,,,,,,,,#2AB7EF,None,None,None,382.175922393799,text_04,86,1,Reading_Baseline_main_click,None,auf,,,,,,,,,,,,,,,,,,,,,,MA01,no,2024-08-22_08h07.10.569,EXNAT_3_training,2024.1.0,2024-08-22 08h07.51.867027 +0200
,,,,,,1,0,1,0,,,,,,,,,,,,,,,,,,,,,,,,,,,,,#88BA3F,None,None,None,347.768783569336,text_04,87,1,Reading_Baseline_main_click,None,Namibias,,,,,,,,,,,,,,,,,,,,,,MA01,no,2024-08-22_08h07.10.569,EXNAT_3_training,2024.1.0,2024-08-22 08h07.51.867027 +0200
,,,,,,1,0,1,0,,,,,,,,,,,,,,,,,,,,,,,,,,,,,#88BA3F,None,None,None,315.855979919434,text_04,88,1,Reading_Baseline_main_click,None,raue,,,,,,,,,,,,,,,,,,,,,,MA01,no,2024-08-22_08h07.10.569,EXNAT_3_training,2024.1.0,2024-08-22 08h07.51.867027 +0200
,,,,,,1,0,1,0,,,,,,,,,,,,,,,,,,,,,,,,,,,,,#D292F3,None,None,None,348.77610206604,text_04,89,1,Reading_Baseline_main_click,None,und,,,,,,,,,,,,,,,,,,,,,,MA01,no,2024-08-22_08h07.10.569,EXNAT_3_training,2024.1.0,2024-08-22 08h07.51.867027 +0200
,,,,,,1,0,1,0,,,,,,,,,,,,,,,,,,,,,,,,,,,,,#F989A2,None,None,None,315.148830413818,text_04,90,1,Reading_Baseline_main_click,None,faszinierende,,,,,,,,,,,,,,,,,,,,,,MA01,no,2024-08-22_08h07.10.569,EXNAT_3_training,2024.1.0,2024-08-22 08h07.51.867027 +0200
,,,,,,1,0,1,0,,,,,,,,,,,,,,,,,,,,,,,,,,,,,#F989A2,None,None,None,296.653985977173,text_04,91,1,Reading_Baseline_main_click,None,Schönheit.,,,,,,,,,,,,,,,,,,,,,,MA01,no,2024-08-22_08h07.10.569,EXNAT_3_training,2024.1.0,2024-08-22 08h07.51.867027 +0200
,,,,,,1,0,1,0,,,,,,,,,,,,,,,,,,,,,,,,,,,,,,,,,,text_04,,,Reading_Baseline_main_click,,,263.014475107193,Q1,3,c,True,2,None,,,,,,,,,,,,,,,MA01,no,2024-08-22_08h07.10.569,EXNAT_3_training,2024.1.0,2024-08-22 08h07.51.867027 +0200
,,,,,,1,0,1,0,,,,,,,,,,,,,,,,,,,,,,,,,,,,,,,,,,text_04,,,Reading_Baseline_main_click,,,271.235371112823,Q2,1,a,True,2,None,,,,,,,,,,,,,,,MA01,no,2024-08-22_08h07.10.569,EXNAT_3_training,2024.1.0,2024-08-22 08h07.51.867027 +0200
,,,,,,1,0,1,0,,,,,,,,,,,,,,,,,,,,,,,,,,,,,,,,,,text_04,,,Reading_Baseline_main_click,,,275.526620149612,Q3,1,a,True,2,None,,,,,,,,,,,,,,,MA01,no,2024-08-22_08h07.10.569,EXNAT_3_training,2024.1.0,2024-08-22 08h07.51.867027 +0200
,,,,,,1,0,1,0,,,,,,,,,,,,,,,,,,,,,,,,,,,,,,,,,,,,,,,,,,,,,,,281.026585102081,281.026606082916,281.065847158432,281.065860033035,281.075459003448,281.07547712326,281.092048168182,,,,,,,,MA01,no,2024-08-22_08h07.10.569,EXNAT_3_training,2024.1.0,2024-08-22 08h07.51.867027 +0200
,,,,,,2,0,2,0,281.108206033707,,,,,,,,,,,,,,,,,,,,,,,,,281.092425107956,,,#88BA3F,False,correct rejection,None,1286.67783737183,,1,2,0back_single_training,0,,,,,,,,,,,,,,,,#2AB7EF,,,,,,,MA01,no,2024-08-22_08h07.10.569,EXNAT_3_training,2024.1.0,2024-08-22 08h07.51.867027 +0200
,,,,,,2,0,2,0,,,,,,,,,,,,,,,,,,,,,,,,,,,,,#D292F3,False,correct rejection,None,400.413990020752,,2,2,0back_single_training,0,,,,,,,,,,,,,,,,#2AB7EF,,,,,,,MA01,no,2024-08-22_08h07.10.569,EXNAT_3_training,2024.1.0,2024-08-22 08h07.51.867027 +0200
,,,,,,2,0,2,0,,,,,,,,,,,,,,,,,,,,,,,,,,,,,#D292F3,False,correct rejection,None,384.191036224365,,3,2,0back_single_training,0,,,,,,,,,,,,,,,,#2AB7EF,,,,,,,MA01,no,2024-08-22_08h07.10.569,EXNAT_3_training,2024.1.0,2024-08-22 08h07.51.867027 +0200
,,,,,,2,0,2,0,,,,,,,,,,,,,,,,,,,,,,,,,,,,,#2AB7EF,True,hit,450.017929077148,1201.96199417114,,4,2,0back_single_training,0,,,,,,,,,,,,,,,,#2AB7EF,,,,,,,MA01,no,2024-08-22_08h07.10.569,EXNAT_3_training,2024.1.0,2024-08-22 08h07.51.867027 +0200
,,,,,,2,0,2,0,,,,,,,,,,,,,,,,,,,,,,,,,,,,,#D292F3,False,correct rejection,None,500.693798065186,,5,2,0back_single_training,0,,,,,,,,,,,,,,,,#2AB7EF,,,,,,,MA01,no,2024-08-22_08h07.10.569,EXNAT_3_training,2024.1.0,2024-08-22 08h07.51.867027 +0200
,,,,,,2,0,2,0,,,,,,,,,,,,,,,,,,,,,,,,,,,,,#F989A2,False,correct rejection,None,433.894157409668,,6,2,0back_single_training,0,,,,,,,,,,,,,,,,#2AB7EF,,,,,,,MA01,no,2024-08-22_08h07.10.569,EXNAT_3_training,2024.1.0,2024-08-22 08h07.51.867027 +0200
,,,,,,2,0,2,0,,,,,,,,,,,,,,,,,,,,,,,,,,,,,#88BA3F,False,correct rejection,None,350.409030914307,,7,2,0back_single_training,0,,,,,,,,,,,,,,,,#2AB7EF,,,,,,,MA01,no,2024-08-22_08h07.10.569,EXNAT_3_training,2024.1.0,2024-08-22 08h07.51.867027 +0200
,,,,,,2,0,2,0,,,,,,,,,,,,,,,,,,,,,,,,,,,,,#2AB7EF,True,hit,383.723020553589,817.895889282227,,8,2,0back_single_training,0,,,,,,,,,,,,,,,,#2AB7EF,,,,,,,MA01,no,2024-08-22_08h07.10.569,EXNAT_3_training,2024.1.0,2024-08-22 08h07.51.867027 +0200
,,,,,,2,0,2,0,,,,,,,,,,,,,,,,,,,,,,,,,,,,,#F989A2,False,correct rejection,None,433.319091796875,,9,2,0back_single_training,0,,,,,,,,,,,,,,,,#2AB7EF,,,,,,,MA01,no,2024-08-22_08h07.10.569,EXNAT_3_training,2024.1.0,2024-08-22 08h07.51.867027 +0200
,,,,,,2,0,2,0,,,,,,,,,,,,,,,,,,,,,,,,,,,,,#2AB7EF,True,hit,466.732978820801,801.206111907959,,10,2,0back_single_training,0,,,,,,,,,,,,,,,,#2AB7EF,,,,,,,MA01,no,2024-08-22_08h07.10.569,EXNAT_3_training,2024.1.0,2024-08-22 08h07.51.867027 +0200
,,,,,,2,0,2,0,,,,,,,,,,,,,,,,,,,,,,,,,,,,,#F989A2,False,correct rejection,None,333.644866943359,,11,2,0back_single_training,0,,,,,,,,,,,,,,,,#2AB7EF,,,,,,,MA01,no,2024-08-22_08h07.10.569,EXNAT_3_training,2024.1.0,2024-08-22 08h07.51.867027 +0200
,,,,,,2,0,2,0,,,,,,,,,,,,,,,,,,,,,,,,,,,,,#88BA3F,False,correct rejection,None,332.059144973755,,12,2,0back_single_training,0,,,,,,,,,,,,,,,,#2AB7EF,,,,,,,MA01,no,2024-08-22_08h07.10.569,EXNAT_3_training,2024.1.0,2024-08-22 08h07.51.867027 +0200
,,,,,,2,0,2,0,,,,,,,,,,,,,,,,,,,,,,,,,,,,,#D292F3,False,correct rejection,None,333.707094192505,,13,2,0back_single_training,0,,,,,,,,,,,,,,,,#2AB7EF,,,,,,,MA01,no,2024-08-22_08h07.10.569,EXNAT_3_training,2024.1.0,2024-08-22 08h07.51.867027 +0200
,,,,,,2,0,2,0,,,,,,,,,,,,,,,,,,,,,,,,,,,,,#88BA3F,False,correct rejection,None,367.089033126831,,14,2,0back_single_training,0,,,,,,,,,,,,,,,,#2AB7EF,,,,,,,MA01,no,2024-08-22_08h07.10.569,EXNAT_3_training,2024.1.0,2024-08-22 08h07.51.867027 +0200
,,,,,,2,0,2,0,,,,,,,,,,,,,,,,,,,,,,,,,,,,,#88BA3F,False,correct rejection,None,351.640939712524,,15,2,0back_single_training,0,,,,,,,,,,,,,,,,#2AB7EF,,,,,,,MA01,no,2024-08-22_08h07.10.569,EXNAT_3_training,2024.1.0,2024-08-22 08h07.51.867027 +0200
,,,,,,2,0,2,0,,,,,,,,,,,,,,,,,,,,,,,,,,,,,#F989A2,False,correct rejection,None,333.606958389282,,16,2,0back_single_training,0,,,,,,,,,,,,,,,,#2AB7EF,,,,,,,MA01,no,2024-08-22_08h07.10.569,EXNAT_3_training,2024.1.0,2024-08-22 08h07.51.867027 +0200
,,,,,,2,0,2,0,,,,,,,,,,,,,,,,,,,,,,,,,,,,,#F989A2,False,correct rejection,None,316.931009292603,,17,2,0back_single_training,0,,,,,,,,,,,,,,,,#2AB7EF,,,,,,,MA01,no,2024-08-22_08h07.10.569,EXNAT_3_training,2024.1.0,2024-08-22 08h07.51.867027 +0200
,,,,,,2,0,2,0,,,,,,,,,,,,,,,,,,,,,,,,,,,,,#D292F3,False,correct rejection,None,367.035150527954,,18,2,0back_single_training,0,,,,,,,,,,,,,,,,#2AB7EF,,,,,,,MA01,no,2024-08-22_08h07.10.569,EXNAT_3_training,2024.1.0,2024-08-22 08h07.51.867027 +0200
,,,,,,2,0,2,0,,,,,,,,,,,,,,,,,,,,,,,,,,,,,#2AB7EF,True,hit,500.624179840088,851.30500793457,,19,2,0back_single_training,0,,,,,,,,,,,,,,,,#2AB7EF,,,,,,,MA01,no,2024-08-22_08h07.10.569,EXNAT_3_training,2024.1.0,2024-08-22 08h07.51.867027 +0200
,,,,,,2,0,2,0,,,,,,,,,,,,,,,,,,,,,,,,,,,,,#2AB7EF,True,miss,None,400.429010391235,,20,2,0back_single_training,0,,,,,,,,,,,,,,,,#2AB7EF,,,,,,,MA01,no,2024-08-22_08h07.10.569,EXNAT_3_training,2024.1.0,2024-08-22 08h07.51.867027 +0200
,,,,,,2,0,2,0,,,,,,,,,,,,,,,,,,,,,,,,,,,332.391337156296,332.391345024109,#D292F3,False,correct rejection,None,1115.98896980286,text_05,1,3,0back_dual_main_click,0,Trottellummen,,,,,,,,,,,,,,,#88BA3F,,,,,,,MA01,no,2024-08-22_08h07.10.569,EXNAT_3_training,2024.1.0,2024-08-22 08h07.51.867027 +0200
,,,,,,2,0,2,0,,,,,,,,,,,,,,,,,,,,,,,,,,,,,#D292F3,False,correct rejection,None,432.017087936401,text_05,2,3,0back_dual_main_click,0,brüten,,,,,,,,,,,,,,,#88BA3F,,,,,,,MA01,no,2024-08-22_08h07.10.569,EXNAT_3_training,2024.1.0,2024-08-22 08h07.51.867027 +0200
,,,,,,2,0,2,0,,,,,,,,,,,,,,,,,,,,,,,,,,,,,#F989A2,False,correct rejection,None,414.674043655396,text_05,3,3,0back_dual_main_click,0,auf,,,,,,,,,,,,,,,#88BA3F,,,,,,,MA01,no,2024-08-22_08h07.10.569,EXNAT_3_training,2024.1.0,2024-08-22 08h07.51.867027 +0200
,,,,,,2,0,2,0,,,,,,,,,,,,,,,,,,,,,,,,,,,,,#F989A2,False,correct rejection,None,381.433963775635,text_05,4,3,0back_dual_main_click,0,steilen,,,,,,,,,,,,,,,#88BA3F,,,,,,,MA01,no,2024-08-22_08h07.10.569,EXNAT_3_training,2024.1.0,2024-08-22 08h07.51.867027 +0200
,,,,,,2,0,2,0,,,,,,,,,,,,,,,,,,,,,,,,,,,,,#D292F3,False,correct rejection,None,447.629928588867,text_05,5,3,0back_dual_main_click,0,Felsklippen,,,,,,,,,,,,,,,#88BA3F,,,,,,,MA01,no,2024-08-22_08h07.10.569,EXNAT_3_training,2024.1.0,2024-08-22 08h07.51.867027 +0200
,,,,,,2,0,2,0,,,,,,,,,,,,,,,,,,,,,,,,,,,,,#2AB7EF,False,correct rejection,None,582.562208175659,text_05,6,3,0back_dual_main_click,0,ohne,,,,,,,,,,,,,,,#88BA3F,,,,,,,MA01,no,2024-08-22_08h07.10.569,EXNAT_3_training,2024.1.0,2024-08-22 08h07.51.867027 +0200
,,,,,,2,0,2,0,,,,,,,,,,,,,,,,,,,,,,,,,,,,,#88BA3F,True,hit,565.213203430176,949.228048324585,text_05,7,3,0back_dual_main_click,0,"Nester,",,,,,,,,,,,,,,,#88BA3F,,,,,,,MA01,no,2024-08-22_08h07.10.569,EXNAT_3_training,2024.1.0,2024-08-22 08h07.51.867027 +0200
,,,,,,2,0,2,0,,,,,,,,,,,,,,,,,,,,,,,,,,,,,#F989A2,False,correct rejection,None,666.115045547485,text_05,8,3,0back_dual_main_click,0,so,,,,,,,,,,,,,,,#88BA3F,,,,,,,MA01,no,2024-08-22_08h07.10.569,EXNAT_3_training,2024.1.0,2024-08-22 08h07.51.867027 +0200
,,,,,,2,0,2,0,,,,,,,,,,,,,,,,,,,,,,,,,,,,,#D292F3,False,correct rejection,None,448.603868484497,text_05,9,3,0back_dual_main_click,0,auch,,,,,,,,,,,,,,,#88BA3F,,,,,,,MA01,no,2024-08-22_08h07.10.569,EXNAT_3_training,2024.1.0,2024-08-22 08h07.51.867027 +0200
,,,,,,2,0,2,0,,,,,,,,,,,,,,,,,,,,,,,,,,,,,#D292F3,False,correct rejection,None,398.873090744019,text_05,10,3,0back_dual_main_click,0,auf,,,,,,,,,,,,,,,#88BA3F,,,,,,,MA01,no,2024-08-22_08h07.10.569,EXNAT_3_training,2024.1.0,2024-08-22 08h07.51.867027 +0200
,,,,,,2,0,2,0,,,,,,,,,,,,,,,,,,,,,,,,,,,,,#2AB7EF,False,correct rejection,None,515.18702507019,text_05,11,3,0back_dual_main_click,0,der,,,,,,,,,,,,,,,#88BA3F,,,,,,,MA01,no,2024-08-22_08h07.10.569,EXNAT_3_training,2024.1.0,2024-08-22 08h07.51.867027 +0200
,,,,,,2,0,2,0,,,,,,,,,,,,,,,,,,,,,,,,,,,,,#D292F3,False,correct rejection,None,381.90484046936,text_05,12,3,0back_dual_main_click,0,deutschen,,,,,,,,,,,,,,,#88BA3F,,,,,,,MA01,no,2024-08-22_08h07.10.569,EXNAT_3_training,2024.1.0,2024-08-22 08h07.51.867027 +0200
,,,,,,2,0,2,0,,,,,,,,,,,,,,,,,,,,,,,,,,,,,#88BA3F,True,hit,532.000064849854,848.726034164429,text_05,13,3,0back_dual_main_click,0,Insel,,,,,,,,,,,,,,,#88BA3F,,,,,,,MA01,no,2024-08-22_08h07.10.569,EXNAT_3_training,2024.1.0,2024-08-22 08h07.51.867027 +0200
,,,,,,2,0,2,0,,,,,,,,,,,,,,,,,,,,,,,,,,,,,#D292F3,False,correct rejection,None,398.432016372681,text_05,14,3,0back_dual_main_click,0,Helgoland.,,,,,,,,,,,,,,,#88BA3F,,,,,,,MA01,no,2024-08-22_08h07.10.569,EXNAT_3_training,2024.1.0,2024-08-22 08h07.51.867027 +0200
,,,,,,2,0,2,0,,,,,,,,,,,,,,,,,,,,,,,,,,,,,#F989A2,False,correct rejection,None,365.437984466553,text_05,15,3,0back_dual_main_click,0,Ihre,,,,,,,,,,,,,,,#88BA3F,,,,,,,MA01,no,2024-08-22_08h07.10.569,EXNAT_3_training,2024.1.0,2024-08-22 08h07.51.867027 +0200
,,,,,,2,0,2,0,,,,,,,,,,,,,,,,,,,,,,,,,,,,,#D292F3,False,correct rejection,None,415.243864059448,text_05,16,3,0back_dual_main_click,0,Eier,,,,,,,,,,,,,,,#88BA3F,,,,,,,MA01,no,2024-08-22_08h07.10.569,EXNAT_3_training,2024.1.0,2024-08-22 08h07.51.867027 +0200
,,,,,,2,0,2,0,,,,,,,,,,,,,,,,,,,,,,,,,,,,,#F989A2,False,correct rejection,None,415.51685333252,text_05,17,3,0back_dual_main_click,0,sind,,,,,,,,,,,,,,,#88BA3F,,,,,,,MA01,no,2024-08-22_08h07.10.569,EXNAT_3_training,2024.1.0,2024-08-22 08h07.51.867027 +0200
,,,,,,2,0,2,0,,,,,,,,,,,,,,,,,,,,,,,,,,,,,#D292F3,False,correct rejection,None,414.783000946045,text_05,18,3,0back_dual_main_click,0,einzigartig:,,,,,,,,,,,,,,,#88BA3F,,,,,,,MA01,no,2024-08-22_08h07.10.569,EXNAT_3_training,2024.1.0,2024-08-22 08h07.51.867027 +0200
,,,,,,2,0,2,0,,,,,,,,,,,,,,,,,,,,,,,,,,,,,#D292F3,False,correct rejection,None,415.46106338501,text_05,19,3,0back_dual_main_click,0,spitz,,,,,,,,,,,,,,,#88BA3F,,,,,,,MA01,no,2024-08-22_08h07.10.569,EXNAT_3_training,2024.1.0,2024-08-22 08h07.51.867027 +0200
,,,,,,2,0,2,0,,,,,,,,,,,,,,,,,,,,,,,,,,,,,#D292F3,False,correct rejection,None,415.054082870483,text_05,20,3,0back_dual_main_click,0,"zulaufend,",,,,,,,,,,,,,,,#88BA3F,,,,,,,MA01,no,2024-08-22_08h07.10.569,EXNAT_3_training,2024.1.0,2024-08-22 08h07.51.867027 +0200
,,,,,,2,0,2,0,,,,,,,,,,,,,,,,,,,,,,,,,,,,,#D292F3,False,correct rejection,None,398.863077163696,text_05,21,3,0back_dual_main_click,0,bunt,,,,,,,,,,,,,,,#88BA3F,,,,,,,MA01,no,2024-08-22_08h07.10.569,EXNAT_3_training,2024.1.0,2024-08-22 08h07.51.867027 +0200
,,,,,,2,0,2,0,,,,,,,,,,,,,,,,,,,,,,,,,,,,,#D292F3,False,correct rejection,None,382.193088531494,text_05,22,3,0back_dual_main_click,0,und,,,,,,,,,,,,,,,#88BA3F,,,,,,,MA01,no,2024-08-22_08h07.10.569,EXNAT_3_training,2024.1.0,2024-08-22 08h07.51.867027 +0200
,,,,,,2,0,2,0,,,,,,,,,,,,,,,,,,,,,,,,,,,,,#D292F3,False,correct rejection,None,398.677825927734,text_05,23,3,0back_dual_main_click,0,gemustert.,,,,,,,,,,,,,,,#88BA3F,,,,,,,MA01,no,2024-08-22_08h07.10.569,EXNAT_3_training,2024.1.0,2024-08-22 08h07.51.867027 +0200
,,,,,,2,0,2,0,,,,,,,,,,,,,,,,,,,,,,,,,,,,,#D292F3,False,correct rejection,None,398.117780685425,text_05,24,3,0back_dual_main_click,0,Diese,,,,,,,,,,,,,,,#88BA3F,,,,,,,MA01,no,2024-08-22_08h07.10.569,EXNAT_3_training,2024.1.0,2024-08-22 08h07.51.867027 +0200
,,,,,,2,0,2,0,,,,,,,,,,,,,,,,,,,,,,,,,,,,,#2AB7EF,False,correct rejection,None,564.196825027466,text_05,25,3,0back_dual_main_click,0,Form,,,,,,,,,,,,,,,#88BA3F,,,,,,,MA01,no,2024-08-22_08h07.10.569,EXNAT_3_training,2024.1.0,2024-08-22 08h07.51.867027 +0200
,,,,,,2,0,2,0,,,,,,,,,,,,,,,,,,,,,,,,,,,,,#D292F3,False,correct rejection,None,414.821863174439,text_05,26,3,0back_dual_main_click,0,"verhindert,",,,,,,,,,,,,,,,#88BA3F,,,,,,,MA01,no,2024-08-22_08h07.10.569,EXNAT_3_training,2024.1.0,2024-08-22 08h07.51.867027 +0200
,,,,,,2,0,2,0,,,,,,,,,,,,,,,,,,,,,,,,,,,,,#F989A2,False,correct rejection,None,415.532112121582,text_05,27,3,0back_dual_main_click,0,dass,,,,,,,,,,,,,,,#88BA3F,,,,,,,MA01,no,2024-08-22_08h07.10.569,EXNAT_3_training,2024.1.0,2024-08-22 08h07.51.867027 +0200
,,,,,,2,0,2,0,,,,,,,,,,,,,,,,,,,,,,,,,,,,,#F989A2,False,correct rejection,None,381.931066513062,text_05,28,3,0back_dual_main_click,0,sie,,,,,,,,,,,,,,,#88BA3F,,,,,,,MA01,no,2024-08-22_08h07.10.569,EXNAT_3_training,2024.1.0,2024-08-22 08h07.51.867027 +0200
,,,,,,2,0,2,0,,,,,,,,,,,,,,,,,,,,,,,,,,,,,#F989A2,False,correct rejection,None,350.272178649902,text_05,29,3,0back_dual_main_click,0,vom,,,,,,,,,,,,,,,#88BA3F,,,,,,,MA01,no,2024-08-22_08h07.10.569,EXNAT_3_training,2024.1.0,2024-08-22 08h07.51.867027 +0200
,,,,,,2,0,2,0,,,,,,,,,,,,,,,,,,,,,,,,,,,,,#88BA3F,True,hit,498.995065689087,832.972049713135,text_05,30,3,0back_dual_main_click,0,Felsen,,,,,,,,,,,,,,,#88BA3F,,,,,,,MA01,no,2024-08-22_08h07.10.569,EXNAT_3_training,2024.1.0,2024-08-22 08h07.51.867027 +0200
,,,,,,2,0,2,0,,,,,,,,,,,,,,,,,,,,,,,,,,,,,#D292F3,False,correct rejection,None,365.270853042603,text_05,31,3,0back_dual_main_click,0,"rollen,",,,,,,,,,,,,,,,#88BA3F,,,,,,,MA01,no,2024-08-22_08h07.10.569,EXNAT_3_training,2024.1.0,2024-08-22 08h07.51.867027 +0200
,,,,,,2,0,2,0,,,,,,,,,,,,,,,,,,,,,,,,,,,,,#D292F3,False,correct rejection,None,382.149934768677,text_05,32,3,0back_dual_main_click,0,denn,,,,,,,,,,,,,,,#88BA3F,,,,,,,MA01,no,2024-08-22_08h07.10.569,EXNAT_3_training,2024.1.0,2024-08-22 08h07.51.867027 +0200
,,,,,,2,0,2,0,,,,,,,,,,,,,,,,,,,,,,,,,,,,,#88BA3F,True,hit,549.131870269775,883.116960525513,text_05,33,3,0back_dual_main_click,0,sie,,,,,,,,,,,,,,,#88BA3F,,,,,,,MA01,no,2024-08-22_08h07.10.569,EXNAT_3_training,2024.1.0,2024-08-22 08h07.51.867027 +0200
,,,,,,2,0,2,0,,,,,,,,,,,,,,,,,,,,,,,,,,,,,#88BA3F,True,hit,582.324028015137,933.001041412354,text_05,34,3,0back_dual_main_click,0,drehen,,,,,,,,,,,,,,,#88BA3F,,,,,,,MA01,no,2024-08-22_08h07.10.569,EXNAT_3_training,2024.1.0,2024-08-22 08h07.51.867027 +0200
,,,,,,2,0,2,0,,,,,,,,,,,,,,,,,,,,,,,,,,,,,#D292F3,False,correct rejection,None,549.139022827148,text_05,35,3,0back_dual_main_click,0,sich,,,,,,,,,,,,,,,#88BA3F,,,,,,,MA01,no,2024-08-22_08h07.10.569,EXNAT_3_training,2024.1.0,2024-08-22 08h07.51.867027 +0200
,,,,,,2,0,2,0,,,,,,,,,,,,,,,,,,,,,,,,,,,,,#2AB7EF,False,correct rejection,None,465.599060058594,text_05,36,3,0back_dual_main_click,0,bei,,,,,,,,,,,,,,,#88BA3F,,,,,,,MA01,no,2024-08-22_08h07.10.569,EXNAT_3_training,2024.1.0,2024-08-22 08h07.51.867027 +0200
,,,,,,2,0,2,0,,,,,,,,,,,,,,,,,,,,,,,,,,,,,#D292F3,False,correct rejection,None,447.898864746094,text_05,37,3,0back_dual_main_click,0,Berührung,,,,,,,,,,,,,,,#88BA3F,,,,,,,MA01,no,2024-08-22_08h07.10.569,EXNAT_3_training,2024.1.0,2024-08-22 08h07.51.867027 +0200
,,,,,,2,0,2,0,,,,,,,,,,,,,,,,,,,,,,,,,,,,,#D292F3,False,correct rejection,None,398.866891860962,text_05,38,3,0back_dual_main_click,0,im,,,,,,,,,,,,,,,#88BA3F,,,,,,,MA01,no,2024-08-22_08h07.10.569,EXNAT_3_training,2024.1.0,2024-08-22 08h07.51.867027 +0200
,,,,,,2,0,2,0,,,,,,,,,,,,,,,,,,,,,,,,,,,,,#88BA3F,True,hit,465.543031692505,766.136884689331,text_05,39,3,0back_dual_main_click,0,engen,,,,,,,,,,,,,,,#88BA3F,,,,,,,MA01,no,2024-08-22_08h07.10.569,EXNAT_3_training,2024.1.0,2024-08-22 08h07.51.867027 +0200
,,,,,,2,0,2,0,,,,,,,,,,,,,,,,,,,,,,,,,,,,,#D292F3,False,correct rejection,None,398.138999938965,text_05,40,3,0back_dual_main_click,0,Kreis.,,,,,,,,,,,,,,,#88BA3F,,,,,,,MA01,no,2024-08-22_08h07.10.569,EXNAT_3_training,2024.1.0,2024-08-22 08h07.51.867027 +0200
,,,,,,2,0,2,0,,,,,,,,,,,,,,,,,,,,,,,,,,,,,#2AB7EF,False,correct rejection,None,397.009134292603,text_05,41,3,0back_dual_main_click,0,Forscher,,,,,,,,,,,,,,,#88BA3F,,,,,,,MA01,no,2024-08-22_08h07.10.569,EXNAT_3_training,2024.1.0,2024-08-22 08h07.51.867027 +0200
,,,,,,2,0,2,0,,,,,,,,,,,,,,,,,,,,,,,,,,,,,#2AB7EF,False,correct rejection,None,315.244197845459,text_05,42,3,0back_dual_main_click,0,haben,,,,,,,,,,,,,,,#88BA3F,,,,,,,MA01,no,2024-08-22_08h07.10.569,EXNAT_3_training,2024.1.0,2024-08-22 08h07.51.867027 +0200
,,,,,,2,0,2,0,,,,,,,,,,,,,,,,,,,,,,,,,,,,,#D292F3,False,correct rejection,None,431.540012359619,text_05,43,3,0back_dual_main_click,0,außerdem,,,,,,,,,,,,,,,#88BA3F,,,,,,,MA01,no,2024-08-22_08h07.10.569,EXNAT_3_training,2024.1.0,2024-08-22 08h07.51.867027 +0200
,,,,,,2,0,2,0,,,,,,,,,,,,,,,,,,,,,,,,,,,,,#F989A2,False,correct rejection,None,465.450048446655,text_05,44,3,0back_dual_main_click,0,"entdeckt,",,,,,,,,,,,,,,,#88BA3F,,,,,,,MA01,no,2024-08-22_08h07.10.569,EXNAT_3_training,2024.1.0,2024-08-22 08h07.51.867027 +0200
,,,,,,2,0,2,0,,,,,,,,,,,,,,,,,,,,,,,,,,,,,#F989A2,False,correct rejection,None,450.105905532837,text_05,45,3,0back_dual_main_click,0,dass,,,,,,,,,,,,,,,#88BA3F,,,,,,,MA01,no,2024-08-22_08h07.10.569,EXNAT_3_training,2024.1.0,2024-08-22 08h07.51.867027 +0200
,,,,,,2,0,2,0,,,,,,,,,,,,,,,,,,,,,,,,,,,,,#D292F3,False,correct rejection,None,515.712022781372,text_05,46,3,0back_dual_main_click,0,die,,,,,,,,,,,,,,,#88BA3F,,,,,,,MA01,no,2024-08-22_08h07.10.569,EXNAT_3_training,2024.1.0,2024-08-22 08h07.51.867027 +0200
,,,,,,2,0,2,0,,,,,,,,,,,,,,,,,,,,,,,,,,,,,#D292F3,False,correct rejection,None,364.724159240723,text_05,47,3,0back_dual_main_click,0,Schale,,,,,,,,,,,,,,,#88BA3F,,,,,,,MA01,no,2024-08-22_08h07.10.569,EXNAT_3_training,2024.1.0,2024-08-22 08h07.51.867027 +0200
,,,,,,2,0,2,0,,,,,,,,,,,,,,,,,,,,,,,,,,,,,#2AB7EF,False,correct rejection,None,465.677976608276,text_05,48,3,0back_dual_main_click,0,der,,,,,,,,,,,,,,,#88BA3F,,,,,,,MA01,no,2024-08-22_08h07.10.569,EXNAT_3_training,2024.1.0,2024-08-22 08h07.51.867027 +0200
,,,,,,2,0,2,0,,,,,,,,,,,,,,,,,,,,,,,,,,,,,#2AB7EF,False,correct rejection,None,415.501117706299,text_05,49,3,0back_dual_main_click,0,Eier,,,,,,,,,,,,,,,#88BA3F,,,,,,,MA01,no,2024-08-22_08h07.10.569,EXNAT_3_training,2024.1.0,2024-08-22 08h07.51.867027 +0200
,,,,,,2,0,2,0,,,,,,,,,,,,,,,,,,,,,,,,,,,,,#F989A2,False,correct rejection,None,515.475988388062,text_05,50,3,0back_dual_main_click,0,Nanostrukturen,,,,,,,,,,,,,,,#88BA3F,,,,,,,MA01,no,2024-08-22_08h07.10.569,EXNAT_3_training,2024.1.0,2024-08-22 08h07.51.867027 +0200
,,,,,,2,0,2,0,,,,,,,,,,,,,,,,,,,,,,,,,,,,,#F989A2,False,correct rejection,None,432.058811187744,text_05,51,3,0back_dual_main_click,0,"besitzt,",,,,,,,,,,,,,,,#88BA3F,,,,,,,MA01,no,2024-08-22_08h07.10.569,EXNAT_3_training,2024.1.0,2024-08-22 08h07.51.867027 +0200
,,,,,,2,0,2,0,,,,,,,,,,,,,,,,,,,,,,,,,,,,,#2AB7EF,False,correct rejection,None,549.160003662109,text_05,52,3,0back_dual_main_click,0,die,,,,,,,,,,,,,,,#88BA3F,,,,,,,MA01,no,2024-08-22_08h07.10.569,EXNAT_3_training,2024.1.0,2024-08-22 08h07.51.867027 +0200
,,,,,,2,0,2,0,,,,,,,,,,,,,,,,,,,,,,,,,,,,,#88BA3F,True,hit,497.799158096314,815.077066421509,text_05,53,3,0back_dual_main_click,0,wasserabweisend,,,,,,,,,,,,,,,#88BA3F,,,,,,,MA01,no,2024-08-22_08h07.10.569,EXNAT_3_training,2024.1.0,2024-08-22 08h07.51.867027 +0200
,,,,,,2,0,2,0,,,,,,,,,,,,,,,,,,,,,,,,,,,,,#2AB7EF,False,correct rejection,None,432.221174240112,text_05,54,3,0back_dual_main_click,0,und,,,,,,,,,,,,,,,#88BA3F,,,,,,,MA01,no,2024-08-22_08h07.10.569,EXNAT_3_training,2024.1.0,2024-08-22 08h07.51.867027 +0200
,,,,,,2,0,2,0,,,,,,,,,,,,,,,,,,,,,,,,,,,,,#F989A2,False,correct rejection,None,365.490198135376,text_05,55,3,0back_dual_main_click,0,rau,,,,,,,,,,,,,,,#88BA3F,,,,,,,MA01,no,2024-08-22_08h07.10.569,EXNAT_3_training,2024.1.0,2024-08-22 08h07.51.867027 +0200
,,,,,,2,0,2,0,,,,,,,,,,,,,,,,,,,,,,,,,,,,,#88BA3F,True,miss,None,382.315874099731,text_05,56,3,0back_dual_main_click,0,sind.,,,,,,,,,,,,,,,#88BA3F,,,,,,,MA01,no,2024-08-22_08h07.10.569,EXNAT_3_training,2024.1.0,2024-08-22 08h07.51.867027 +0200
,,,,,,2,0,2,0,,,,,,,,,,,,,,,,,,,,,,,,,,,,,#2AB7EF,False,correct rejection,None,732.362031936646,text_05,57,3,0back_dual_main_click,0,Dies,,,,,,,,,,,,,,,#88BA3F,,,,,,,MA01,no,2024-08-22_08h07.10.569,EXNAT_3_training,2024.1.0,2024-08-22 08h07.51.867027 +0200
,,,,,,2,0,2,0,,,,,,,,,,,,,,,,,,,,,,,,,,,,,#2AB7EF,False,correct rejection,None,398.638010025024,text_05,58,3,0back_dual_main_click,0,schützt,,,,,,,,,,,,,,,#88BA3F,,,,,,,MA01,no,2024-08-22_08h07.10.569,EXNAT_3_training,2024.1.0,2024-08-22 08h07.51.867027 +0200
,,,,,,2,0,2,0,,,,,,,,,,,,,,,,,,,,,,,,,,,,,#2AB7EF,False,correct rejection,None,415.55118560791,text_05,59,3,0back_dual_main_click,0,die,,,,,,,,,,,,,,,#88BA3F,,,,,,,MA01,no,2024-08-22_08h07.10.569,EXNAT_3_training,2024.1.0,2024-08-22 08h07.51.867027 +0200
,,,,,,2,0,2,0,,,,,,,,,,,,,,,,,,,,,,,,,,,,,#2AB7EF,False,correct rejection,None,448.978900909424,text_05,60,3,0back_dual_main_click,0,Eier,,,,,,,,,,,,,,,#88BA3F,,,,,,,MA01,no,2024-08-22_08h07.10.569,EXNAT_3_training,2024.1.0,2024-08-22 08h07.51.867027 +0200
,,,,,,2,0,2,0,,,,,,,,,,,,,,,,,,,,,,,,,,,,,#2AB7EF,False,correct rejection,None,415.383100509644,text_05,61,3,0back_dual_main_click,0,vor,,,,,,,,,,,,,,,#88BA3F,,,,,,,MA01,no,2024-08-22_08h07.10.569,EXNAT_3_training,2024.1.0,2024-08-22 08h07.51.867027 +0200
,,,,,,2,0,2,0,,,,,,,,,,,,,,,,,,,,,,,,,,,,,#2AB7EF,False,correct rejection,None,481.698989868164,text_05,62,3,0back_dual_main_click,0,Schmutz,,,,,,,,,,,,,,,#88BA3F,,,,,,,MA01,no,2024-08-22_08h07.10.569,EXNAT_3_training,2024.1.0,2024-08-22 08h07.51.867027 +0200
,,,,,,2,0,2,0,,,,,,,,,,,,,,,,,,,,,,,,,,,,,#2AB7EF,False,correct rejection,None,365.46802520752,text_05,63,3,0back_dual_main_click,0,und,,,,,,,,,,,,,,,#88BA3F,,,,,,,MA01,no,2024-08-22_08h07.10.569,EXNAT_3_training,2024.1.0,2024-08-22 08h07.51.867027 +0200
,,,,,,2,0,2,0,,,,,,,,,,,,,,,,,,,,,,,,,,,,,#88BA3F,True,hit,582.027912139893,882.606983184814,text_05,64,3,0back_dual_main_click,0,"Salzwasser,",,,,,,,,,,,,,,,#88BA3F,,,,,,,MA01,no,2024-08-22_08h07.10.569,EXNAT_3_training,2024.1.0,2024-08-22 08h07.51.867027 +0200
,,,,,,2,0,2,0,,,,,,,,,,,,,,,,,,,,,,,,,,,,,#F989A2,False,correct rejection,None,1298.31409454346,text_05,65,3,0back_dual_main_click,0,hält,,,,,,,,,,,,,,,#88BA3F,,,,,,,MA01,no,2024-08-22_08h07.10.569,EXNAT_3_training,2024.1.0,2024-08-22 08h07.51.867027 +0200
,,,,,,2,0,2,0,,,,,,,,,,,,,,,,,,,,,,,,,,,,,#88BA3F,True,hit,767.927885055542,1035.11691093445,text_05,66,3,0back_dual_main_click,0,die,,,,,,,,,,,,,,,#88BA3F,,,,,,,MA01,no,2024-08-22_08h07.10.569,EXNAT_3_training,2024.1.0,2024-08-22 08h07.51.867027 +0200
,,,,,,2,0,2,0,,,,,,,,,,,,,,,,,,,,,,,,,,,,,#F989A2,False,correct rejection,None,899.150848388672,text_05,67,3,0back_dual_main_click,0,Poren,,,,,,,,,,,,,,,#88BA3F,,,,,,,MA01,no,2024-08-22_08h07.10.569,EXNAT_3_training,2024.1.0,2024-08-22 08h07.51.867027 +0200
,,,,,,2,0,2,0,,,,,,,,,,,,,,,,,,,,,,,,,,,,,#F989A2,False,correct rejection,None,499.002933502197,text_05,68,3,0back_dual_main_click,0,frei,,,,,,,,,,,,,,,#88BA3F,,,,,,,MA01,no,2024-08-22_08h07.10.569,EXNAT_3_training,2024.1.0,2024-08-22 08h07.51.867027 +0200
,,,,,,2,0,2,0,,,,,,,,,,,,,,,,,,,,,,,,,,,,,#2AB7EF,False,correct rejection,None,549.170970916748,text_05,69,3,0back_dual_main_click,0,und,,,,,,,,,,,,,,,#88BA3F,,,,,,,MA01,no,2024-08-22_08h07.10.569,EXNAT_3_training,2024.1.0,2024-08-22 08h07.51.867027 +0200
,,,,,,2,0,2,0,,,,,,,,,,,,,,,,,,,,,,,,,,,,,#2AB7EF,False,correct rejection,None,431.679964065552,text_05,70,3,0back_dual_main_click,0,erleichtert,,,,,,,,,,,,,,,#88BA3F,,,,,,,MA01,no,2024-08-22_08h07.10.569,EXNAT_3_training,2024.1.0,2024-08-22 08h07.51.867027 +0200
,,,,,,2,0,2,0,,,,,,,,,,,,,,,,,,,,,,,,,,,,,#F989A2,False,correct rejection,None,398.850917816162,text_05,71,3,0back_dual_main_click,0,den,,,,,,,,,,,,,,,#88BA3F,,,,,,,MA01,no,2024-08-22_08h07.10.569,EXNAT_3_training,2024.1.0,2024-08-22 08h07.51.867027 +0200
,,,,,,2,0,2,0,,,,,,,,,,,,,,,,,,,,,,,,,,,,,#2AB7EF,False,correct rejection,None,448.339939117432,text_05,72,3,0back_dual_main_click,0,Sauerstoffaustausch.,,,,,,,,,,,,,,,#88BA3F,,,,,,,MA01,no,2024-08-22_08h07.10.569,EXNAT_3_training,2024.1.0,2024-08-22 08h07.51.867027 +0200
,,,,,,2,0,2,0,,,,,,,,,,,,,,,,,,,,,,,,,,,,,#88BA3F,True,hit,515.52414894104,832.805156707764,text_05,73,3,0back_dual_main_click,0,Die,,,,,,,,,,,,,,,#88BA3F,,,,,,,MA01,no,2024-08-22_08h07.10.569,EXNAT_3_training,2024.1.0,2024-08-22 08h07.51.867027 +0200
,,,,,,2,0,2,0,,,,,,,,,,,,,,,,,,,,,,,,,,,,,#2AB7EF,False,correct rejection,None,415.374994277954,text_05,74,3,0back_dual_main_click,0,bunten,,,,,,,,,,,,,,,#88BA3F,,,,,,,MA01,no,2024-08-22_08h07.10.569,EXNAT_3_training,2024.1.0,2024-08-22 08h07.51.867027 +0200
,,,,,,2,0,2,0,,,,,,,,,,,,,,,,,,,,,,,,,,,,,#2AB7EF,False,correct rejection,None,348.044872283936,text_05,75,3,0back_dual_main_click,0,Muster,,,,,,,,,,,,,,,#88BA3F,,,,,,,MA01,no,2024-08-22_08h07.10.569,EXNAT_3_training,2024.1.0,2024-08-22 08h07.51.867027 +0200
,,,,,,2,0,2,0,,,,,,,,,,,,,,,,,,,,,,,,,,,,,#2AB7EF,False,correct rejection,None,382.049083709717,text_05,76,3,0back_dual_main_click,0,helfen,,,,,,,,,,,,,,,#88BA3F,,,,,,,MA01,no,2024-08-22_08h07.10.569,EXNAT_3_training,2024.1.0,2024-08-22 08h07.51.867027 +0200
,,,,,,2,0,2,0,,,,,,,,,,,,,,,,,,,,,,,,,,,,,#88BA3F,True,hit,532.158136367798,816.030025482178,text_05,77,3,0back_dual_main_click,0,den,,,,,,,,,,,,,,,#88BA3F,,,,,,,MA01,no,2024-08-22_08h07.10.569,EXNAT_3_training,2024.1.0,2024-08-22 08h07.51.867027 +0200
,,,,,,2,0,2,0,,,,,,,,,,,,,,,,,,,,,,,,,,,,,#2AB7EF,False,correct rejection,None,365.270137786865,text_05,78,3,0back_dual_main_click,0,"Eltern,",,,,,,,,,,,,,,,#88BA3F,,,,,,,MA01,no,2024-08-22_08h07.10.569,EXNAT_3_training,2024.1.0,2024-08-22 08h07.51.867027 +0200
,,,,,,2,0,2,0,,,,,,,,,,,,,,,,,,,,,,,,,,,,,#F989A2,False,correct rejection,None,415.585041046143,text_05,79,3,0back_dual_main_click,0,ihre,,,,,,,,,,,,,,,#88BA3F,,,,,,,MA01,no,2024-08-22_08h07.10.569,EXNAT_3_training,2024.1.0,2024-08-22 08h07.51.867027 +0200
,,,,,,2,0,2,0,,,,,,,,,,,,,,,,,,,,,,,,,,,,,#F989A2,False,correct rejection,None,398.734092712402,text_05,80,3,0back_dual_main_click,0,eigenen,,,,,,,,,,,,,,,#88BA3F,,,,,,,MA01,no,2024-08-22_08h07.10.569,EXNAT_3_training,2024.1.0,2024-08-22 08h07.51.867027 +0200
,,,,,,2,0,2,0,,,,,,,,,,,,,,,,,,,,,,,,,,,,,#2AB7EF,False,correct rejection,None,499.021053314209,text_05,81,3,0back_dual_main_click,0,Eier,,,,,,,,,,,,,,,#88BA3F,,,,,,,MA01,no,2024-08-22_08h07.10.569,EXNAT_3_training,2024.1.0,2024-08-22 08h07.51.867027 +0200
,,,,,,2,0,2,0,,,,,,,,,,,,,,,,,,,,,,,,,,,,,#F989A2,False,correct rejection,None,397.256851196289,text_05,82,3,0back_dual_main_click,0,zu,,,,,,,,,,,,,,,#88BA3F,,,,,,,MA01,no,2024-08-22_08h07.10.569,EXNAT_3_training,2024.1.0,2024-08-22 08h07.51.867027 +0200
,,,,,,2,0,2,0,,,,,,,,,,,,,,,,,,,,,,,,,,,,,#F989A2,False,correct rejection,None,348.596096038818,text_05,83,3,0back_dual_main_click,0,erkennen.,,,,,,,,,,,,,,,#88BA3F,,,,,,,MA01,no,2024-08-22_08h07.10.569,EXNAT_3_training,2024.1.0,2024-08-22 08h07.51.867027 +0200
,,,,,,2,0,2,0,,,,,,,,,,,,,,,,,,,,,,,,,,,,,#88BA3F,True,hit,532.274961471558,832.852125167847,text_05,84,3,0back_dual_main_click,0,So,,,,,,,,,,,,,,,#88BA3F,,,,,,,MA01,no,2024-08-22_08h07.10.569,EXNAT_3_training,2024.1.0,2024-08-22 08h07.51.867027 +0200
,,,,,,2,0,2,0,,,,,,,,,,,,,,,,,,,,,,,,,,,,,#F989A2,False,correct rejection,None,383.166074752808,text_05,85,3,0back_dual_main_click,0,überstehen,,,,,,,,,,,,,,,#88BA3F,,,,,,,MA01,no,2024-08-22_08h07.10.569,EXNAT_3_training,2024.1.0,2024-08-22 08h07.51.867027 +0200
,,,,,,2,0,2,0,,,,,,,,,,,,,,,,,,,,,,,,,,,,,#F989A2,False,correct rejection,None,365.65899848938,text_05,86,3,0back_dual_main_click,0,die,,,,,,,,,,,,,,,#88BA3F,,,,,,,MA01,no,2024-08-22_08h07.10.569,EXNAT_3_training,2024.1.0,2024-08-22 08h07.51.867027 +0200
,,,,,,2,0,2,0,,,,,,,,,,,,,,,,,,,,,,,,,,,,,#F989A2,False,correct rejection,None,415.555953979492,text_05,87,3,0back_dual_main_click,0,Eier,,,,,,,,,,,,,,,#88BA3F,,,,,,,MA01,no,2024-08-22_08h07.10.569,EXNAT_3_training,2024.1.0,2024-08-22 08h07.51.867027 +0200
,,,,,,2,0,2,0,,,,,,,,,,,,,,,,,,,,,,,,,,,,,#F989A2,False,correct rejection,None,415.556907653809,text_05,88,3,0back_dual_main_click,0,die,,,,,,,,,,,,,,,#88BA3F,,,,,,,MA01,no,2024-08-22_08h07.10.569,EXNAT_3_training,2024.1.0,2024-08-22 08h07.51.867027 +0200
,,,,,,2,0,2,0,,,,,,,,,,,,,,,,,,,,,,,,,,,,,#88BA3F,True,hit,465.157032012939,782.444000244141,text_05,89,3,0back_dual_main_click,0,gefährliche,,,,,,,,,,,,,,,#88BA3F,,,,,,,MA01,no,2024-08-22_08h07.10.569,EXNAT_3_training,2024.1.0,2024-08-22 08h07.51.867027 +0200
,,,,,,2,0,2,0,,,,,,,,,,,,,,,,,,,,,,,,,,,,,#88BA3F,True,miss,None,348.370790481567,text_05,90,3,0back_dual_main_click,0,Brutzeit,,,,,,,,,,,,,,,#88BA3F,,,,,,,MA01,no,2024-08-22_08h07.10.569,EXNAT_3_training,2024.1.0,2024-08-22 08h07.51.867027 +0200
,,,,,,2,0,2,0,,,,,,,,,,,,,,,,,,,,,,,,,,,,,#F989A2,False,correct rejection,None,749.403953552246,text_05,91,3,0back_dual_main_click,0,besser.,,,,,,,,,,,,,,,#88BA3F,,,,,,,MA01,no,2024-08-22_08h07.10.569,EXNAT_3_training,2024.1.0,2024-08-22 08h07.51.867027 +0200
,,,,,,2,0,2,0,,,,,,,,,,,,,,,,,,,,,,,,,,,,,,,,,,text_05,,,0back_dual_main_click,,,387.53996014595,Q1,NA,NA,False,4,0,,,,,,,,,,,,,,,MA01,no,2024-08-22_08h07.10.569,EXNAT_3_training,2024.1.0,2024-08-22 08h07.51.867027 +0200
,,,,,,2,0,2,0,,,,,,,,,,,,,,,,,,,,,,,,,,,,,,,,,,text_05,,,0back_dual_main_click,,,397.586233139038,Q2,NA,NA,False,4,0,,,,,,,,,,,,,,,MA01,no,2024-08-22_08h07.10.569,EXNAT_3_training,2024.1.0,2024-08-22 08h07.51.867027 +0200
,,,,,,2,0,2,0,,,,,,,,,,,,,,,,,,,,,,,,,,,,,,,,,,text_05,,,0back_dual_main_click,,,407.622648000717,Q3,NA,NA,False,4,0,,,,,,,,,,,,,,,MA01,no,2024-08-22_08h07.10.569,EXNAT_3_training,2024.1.0,2024-08-22 08h07.51.867027 +0200
,,,,,,2,0,2,0,,,,,,,,,,,,,,,,,,,,,,,,,,,,,,,,,,,,,,,,,,,,,,,417.656823158264,417.656831026077,417.697576999664,417.69759106636,417.706236124039,417.706246137619,417.723224163055,,,,,,,,MA01,no,2024-08-22_08h07.10.569,EXNAT_3_training,2024.1.0,2024-08-22 08h07.51.867027 +0200
,,,,,,3,0,3,0,417.739563941956,,,,,,,,,,,,,,,,,,,,,,,,,417.723539113998,,,#D292F3,False,correct rejection,None,884.757995605469,,1,4,1back_single_training1,1,,,,,,,,,,,,,,,,,,,,,,,MA01,no,2024-08-22_08h07.10.569,EXNAT_3_training,2024.1.0,2024-08-22 08h07.51.867027 +0200
,,,,,,3,0,3,0,,,,,,,,,,,,,,,,,,,,,,,,,,,,,#2AB7EF,False,correct rejection,None,817.986965179443,,2,4,1back_single_training1,1,,,,,,,,,,,,,,,,,,,,,,,MA01,no,2024-08-22_08h07.10.569,EXNAT_3_training,2024.1.0,2024-08-22 08h07.51.867027 +0200
,,,,,,3,0,3,0,,,,,,,,,,,,,,,,,,,,,,,,,,,,,#2AB7EF,True,hit,650.964021682739,1001.64294242859,,3,4,1back_single_training1,1,,,,,,,,,,,,,,,,,,,,,,,MA01,no,2024-08-22_08h07.10.569,EXNAT_3_training,2024.1.0,2024-08-22 08h07.51.867027 +0200
,,,,,,3,0,3,0,,,,,,,,,,,,,,,,,,,,,,,,,,,,,#2AB7EF,True,miss,None,1500,,4,4,1back_single_training1,1,,,,,,,,,,,,,,,,,,,,,,,MA01,no,2024-08-22_08h07.10.569,EXNAT_3_training,2024.1.0,2024-08-22 08h07.51.867027 +0200
,,,,,,3,0,3,0,,,,,,,,,,,,,,,,,,,,,,,,,,,,,#88BA3F,False,correct rejection,None,1500,,5,4,1back_single_training1,1,,,,,,,,,,,,,,,,,,,,,,,MA01,no,2024-08-22_08h07.10.569,EXNAT_3_training,2024.1.0,2024-08-22 08h07.51.867027 +0200
,,,,,,3,0,3,0,,,,,,,,,,,,,,,,,,,,,,,,,,,,,#F989A2,False,correct rejection,None,16.3888931274414,,6,4,1back_single_training1,1,,,,,,,,,,,,,,,,,,,,,,,MA01,no,2024-08-22_08h07.10.569,EXNAT_3_training,2024.1.0,2024-08-22 08h07.51.867027 +0200
,,,,,,3,0,3,0,,,,,,,,,,,,,,,,,,,,,,,,,,,,,#F989A2,True,miss,None,1352.32996940613,,7,4,1back_single_training1,1,,,,,,,,,,,,,,,,,,,,,,,MA01,no,2024-08-22_08h07.10.569,EXNAT_3_training,2024.1.0,2024-08-22 08h07.51.867027 +0200
,,,,,,3,0,3,0,,,,,,,,,,,,,,,,,,,,,,,,,,,,,#88BA3F,False,correct rejection,None,834.671974182129,,8,4,1back_single_training1,1,,,,,,,,,,,,,,,,,,,,,,,MA01,no,2024-08-22_08h07.10.569,EXNAT_3_training,2024.1.0,2024-08-22 08h07.51.867027 +0200
,,,,,,3,0,3,0,,,,,,,,,,,,,,,,,,,,,,,,,,,,,#D292F3,False,correct rejection,None,600.882053375244,,9,4,1back_single_training1,1,,,,,,,,,,,,,,,,,,,,,,,MA01,no,2024-08-22_08h07.10.569,EXNAT_3_training,2024.1.0,2024-08-22 08h07.51.867027 +0200
,,,,,,3,0,3,0,,,,,,,,,,,,,,,,,,,,,,,,,,,,,#D292F3,True,hit,465.642929077148,866.413831710815,,10,4,1back_single_training1,1,,,,,,,,,,,,,,,,,,,,,,,MA01,no,2024-08-22_08h07.10.569,EXNAT_3_training,2024.1.0,2024-08-22 08h07.51.867027 +0200
,,,,,,3,0,3,0,,,,,,,,,,,,,,,,,,,,,,,,,,,,,#F989A2,False,correct rejection,None,500.695943832397,,11,4,1back_single_training1,1,,,,,,,,,,,,,,,,,,,,,,,MA01,no,2024-08-22_08h07.10.569,EXNAT_3_training,2024.1.0,2024-08-22 08h07.51.867027 +0200
,,,,,,3,0,3,0,,,,,,,,,,,,,,,,,,,,,,,,,,,,,#88BA3F,False,correct rejection,None,585.88719367981,,12,4,1back_single_training1,1,,,,,,,,,,,,,,,,,,,,,,,MA01,no,2024-08-22_08h07.10.569,EXNAT_3_training,2024.1.0,2024-08-22 08h07.51.867027 +0200
,,,,,,3,0,3,0,,,,,,,,,,,,,,,,,,,,,,,,,,,,,#D292F3,False,correct rejection,None,701.098918914795,,13,4,1back_single_training1,1,,,,,,,,,,,,,,,,,,,,,,,MA01,no,2024-08-22_08h07.10.569,EXNAT_3_training,2024.1.0,2024-08-22 08h07.51.867027 +0200
,,,,,,3,0,3,0,,,,,,,,,,,,,,,,,,,,,,,,,,,,,#F989A2,False,correct rejection,None,534.093856811523,,14,4,1back_single_training1,1,,,,,,,,,,,,,,,,,,,,,,,MA01,no,2024-08-22_08h07.10.569,EXNAT_3_training,2024.1.0,2024-08-22 08h07.51.867027 +0200
,,,,,,3,0,3,0,,,,,,,,,,,,,,,,,,,,,,,,,,,,,#88BA3F,False,correct rejection,None,617.579221725464,,15,4,1back_single_training1,1,,,,,,,,,,,,,,,,,,,,,,,MA01,no,2024-08-22_08h07.10.569,EXNAT_3_training,2024.1.0,2024-08-22 08h07.51.867027 +0200
,,,,,,3,0,3,0,,,,,,,,,,,,,,,,,,,,,,,,,,,,,#F989A2,False,correct rejection,None,716.104984283447,,16,4,1back_single_training1,1,,,,,,,,,,,,,,,,,,,,,,,MA01,no,2024-08-22_08h07.10.569,EXNAT_3_training,2024.1.0,2024-08-22 08h07.51.867027 +0200
,,,,,,3,0,3,0,,,,,,,,,,,,,,,,,,,,,,,,,,,,,#2AB7EF,False,correct rejection,None,484.000205993652,,17,4,1back_single_training1,1,,,,,,,,,,,,,,,,,,,,,,,MA01,no,2024-08-22_08h07.10.569,EXNAT_3_training,2024.1.0,2024-08-22 08h07.51.867027 +0200
,,,,,,3,0,3,0,,,,,,,,,,,,,,,,,,,,,,,,,,,,,#2AB7EF,True,hit,702.804803848267,1020.0719833374,,18,4,1back_single_training1,1,,,,,,,,,,,,,,,,,,,,,,,MA01,no,2024-08-22_08h07.10.569,EXNAT_3_training,2024.1.0,2024-08-22 08h07.51.867027 +0200
,,,,,,3,0,3,0,,,,,,,,,,,,,,,,,,,,,,,,,,,,,#88BA3F,False,correct rejection,None,433.893203735352,,19,4,1back_single_training1,1,,,,,,,,,,,,,,,,,,,,,,,MA01,no,2024-08-22_08h07.10.569,EXNAT_3_training,2024.1.0,2024-08-22 08h07.51.867027 +0200
,,,,,,3,0,3,0,,,,,,,,,,,,,,,,,,,,,,,,,,,,,#D292F3,False,correct rejection,None,884.758949279785,,20,4,1back_single_training1,1,,,,,,,,,,,,,,,,,,,,,,,MA01,no,2024-08-22_08h07.10.569,EXNAT_3_training,2024.1.0,2024-08-22 08h07.51.867027 +0200
,,,,,,3,0,3,0,,,,,,,,,,,,,,,,,,,,,,,,,,,,,#2AB7EF,False,correct rejection,None,1500,,1,5,1back_single_training2,1,,,,,,,,,,,,,,,,,,,,,,,MA01,no,2024-08-22_08h07.10.569,EXNAT_3_training,2024.1.0,2024-08-22 08h07.51.867027 +0200
,,,,,,3,0,3,0,,,,,,,,,,,,,,,,,,,,,,,,,,,,,#F989A2,False,correct rejection,None,433.886051177979,,2,5,1back_single_training2,1,,,,,,,,,,,,,,,,,,,,,,,MA01,no,2024-08-22_08h07.10.569,EXNAT_3_training,2024.1.0,2024-08-22 08h07.51.867027 +0200
,,,,,,3,0,3,0,,,,,,,,,,,,,,,,,,,,,,,,,,,,,#2AB7EF,False,correct rejection,None,851.359844207764,,3,5,1back_single_training2,1,,,,,,,,,,,,,,,,,,,,,,,MA01,no,2024-08-22_08h07.10.569,EXNAT_3_training,2024.1.0,2024-08-22 08h07.51.867027 +0200
,,,,,,3,0,3,0,,,,,,,,,,,,,,,,,,,,,,,,,,,,,#88BA3F,False,correct rejection,None,567.485094070435,,4,5,1back_single_training2,1,,,,,,,,,,,,,,,,,,,,,,,MA01,no,2024-08-22_08h07.10.569,EXNAT_3_training,2024.1.0,2024-08-22 08h07.51.867027 +0200
,,,,,,3,0,3,0,,,,,,,,,,,,,,,,,,,,,,,,,,,,,#F989A2,False,correct rejection,None,550.789833068848,,5,5,1back_single_training2,1,,,,,,,,,,,,,,,,,,,,,,,MA01,no,2024-08-22_08h07.10.569,EXNAT_3_training,2024.1.0,2024-08-22 08h07.51.867027 +0200
,,,,,,3,0,3,0,,,,,,,,,,,,,,,,,,,,,,,,,,,,,#88BA3F,False,correct rejection,None,584.200859069824,,6,5,1back_single_training2,1,,,,,,,,,,,,,,,,,,,,,,,MA01,no,2024-08-22_08h07.10.569,EXNAT_3_training,2024.1.0,2024-08-22 08h07.51.867027 +0200
,,,,,,3,0,3,0,,,,,,,,,,,,,,,,,,,,,,,,,,,,,#D292F3,False,correct rejection,None,534.090995788574,,7,5,1back_single_training2,1,,,,,,,,,,,,,,,,,,,,,,,MA01,no,2024-08-22_08h07.10.569,EXNAT_3_training,2024.1.0,2024-08-22 08h07.51.867027 +0200
,,,,,,3,0,3,0,,,,,,,,,,,,,,,,,,,,,,,,,,,,,#F989A2,False,false alarm,734.476804733276,1135.25891304016,,8,5,1back_single_training2,1,,,,,,,,,,,,,,,,,,,,,,,MA01,no,2024-08-22_08h07.10.569,EXNAT_3_training,2024.1.0,2024-08-22 08h07.51.867027 +0200
,,,,,,3,0,3,0,,,,,,,,,,,,,,,,,,,,,,,,,,,,,#F989A2,True,hit,1387.47811317444,1500,,9,5,1back_single_training2,1,,,,,,,,,,,,,,,,,,,,,,,MA01,no,2024-08-22_08h07.10.569,EXNAT_3_training,2024.1.0,2024-08-22 08h07.51.867027 +0200
,,,,,,3,0,3,0,,,,,,,,,,,,,,,,,,,,,,,,,,,,,#D292F3,False,correct rejection,None,1500,,10,5,1back_single_training2,1,,,,,,,,,,,,,,,,,,,,,,,MA01,no,2024-08-22_08h07.10.569,EXNAT_3_training,2024.1.0,2024-08-22 08h07.51.867027 +0200
,,,,,,3,0,3,0,,,,,,,,,,,,,,,,,,,,,,,,,,,,,#D292F3,True,miss,None,16.3979530334473,,11,5,1back_single_training2,1,,,,,,,,,,,,,,,,,,,,,,,MA01,no,2024-08-22_08h07.10.569,EXNAT_3_training,2024.1.0,2024-08-22 08h07.51.867027 +0200
,,,,,,3,0,3,0,,,,,,,,,,,,,,,,,,,,,,,,,,,,,#2AB7EF,False,correct rejection,None,1302.23894119263,,12,5,1back_single_training2,1,,,,,,,,,,,,,,,,,,,,,,,MA01,no,2024-08-22_08h07.10.569,EXNAT_3_training,2024.1.0,2024-08-22 08h07.51.867027 +0200
,,,,,,3,0,3,0,,,,,,,,,,,,,,,,,,,,,,,,,,,,,#2AB7EF,True,hit,483.82306098938,899.818181991577,,13,5,1back_single_training2,1,,,,,,,,,,,,,,,,,,,,,,,MA01,no,2024-08-22_08h07.10.569,EXNAT_3_training,2024.1.0,2024-08-22 08h07.51.867027 +0200
,,,,,,3,0,3,0,,,,,,,,,,,,,,,,,,,,,,,,,,,,,#88BA3F,False,correct rejection,None,767.879009246826,,14,5,1back_single_training2,1,,,,,,,,,,,,,,,,,,,,,,,MA01,no,2024-08-22_08h07.10.569,EXNAT_3_training,2024.1.0,2024-08-22 08h07.51.867027 +0200
,,,,,,3,0,3,0,,,,,,,,,,,,,,,,,,,,,,,,,,,,,#88BA3F,True,hit,986.685991287231,1337.34107017517,,15,5,1back_single_training2,1,,,,,,,,,,,,,,,,,,,,,,,MA01,no,2024-08-22_08h07.10.569,EXNAT_3_training,2024.1.0,2024-08-22 08h07.51.867027 +0200
,,,,,,3,0,3,0,,,,,,,,,,,,,,,,,,,,,,,,,,,,,#D292F3,False,correct rejection,None,701.07102394104,,16,5,1back_single_training2,1,,,,,,,,,,,,,,,,,,,,,,,MA01,no,2024-08-22_08h07.10.569,EXNAT_3_training,2024.1.0,2024-08-22 08h07.51.867027 +0200
,,,,,,3,0,3,0,,,,,,,,,,,,,,,,,,,,,,,,,,,,,#2AB7EF,False,correct rejection,None,450.588941574097,,17,5,1back_single_training2,1,,,,,,,,,,,,,,,,,,,,,,,MA01,no,2024-08-22_08h07.10.569,EXNAT_3_training,2024.1.0,2024-08-22 08h07.51.867027 +0200
,,,,,,3,0,3,0,,,,,,,,,,,,,,,,,,,,,,,,,,,,,#D292F3,False,correct rejection,None,549.142837524414,,18,5,1back_single_training2,1,,,,,,,,,,,,,,,,,,,,,,,MA01,no,2024-08-22_08h07.10.569,EXNAT_3_training,2024.1.0,2024-08-22 08h07.51.867027 +0200
,,,,,,3,0,3,0,,,,,,,,,,,,,,,,,,,,,,,,,,,,,#F989A2,False,correct rejection,None,517.393827438355,,19,5,1back_single_training2,1,,,,,,,,,,,,,,,,,,,,,,,MA01,no,2024-08-22_08h07.10.569,EXNAT_3_training,2024.1.0,2024-08-22 08h07.51.867027 +0200
,,,,,,3,0,3,0,,,,,,,,,,,,,,,,,,,,,,,,,,,,,#F989A2,True,hit,550.779819488525,919.888019561768,,20,5,1back_single_training2,1,,,,,,,,,,,,,,,,,,,,,,,MA01,no,2024-08-22_08h07.10.569,EXNAT_3_training,2024.1.0,2024-08-22 08h07.51.867027 +0200
,,,,,,3,0,3,0,,,,,,,,,,,,,,,,,,,,,,,,,,,,,#2AB7EF,False,correct rejection,None,934.832096099854,,1,6,1back_single_main,1,,,,,,,,,,,,,,,,,,,,,,,MA01,no,2024-08-22_08h07.10.569,EXNAT_3_training,2024.1.0,2024-08-22 08h07.51.867027 +0200
,,,,,,3,0,3,0,,,,,,,,,,,,,,,,,,,,,,,,,,,,,#D292F3,False,correct rejection,None,534.065961837769,,2,6,1back_single_main,1,,,,,,,,,,,,,,,,,,,,,,,MA01,no,2024-08-22_08h07.10.569,EXNAT_3_training,2024.1.0,2024-08-22 08h07.51.867027 +0200
,,,,,,3,0,3,0,,,,,,,,,,,,,,,,,,,,,,,,,,,,,#2AB7EF,False,correct rejection,None,701.070070266724,,3,6,1back_single_main,1,,,,,,,,,,,,,,,,,,,,,,,MA01,no,2024-08-22_08h07.10.569,EXNAT_3_training,2024.1.0,2024-08-22 08h07.51.867027 +0200
,,,,,,3,0,3,0,,,,,,,,,,,,,,,,,,,,,,,,,,,,,#88BA3F,False,correct rejection,None,751.194000244141,,4,6,1back_single_main,1,,,,,,,,,,,,,,,,,,,,,,,MA01,no,2024-08-22_08h07.10.569,EXNAT_3_training,2024.1.0,2024-08-22 08h07.51.867027 +0200
,,,,,,3,0,3,0,,,,,,,,,,,,,,,,,,,,,,,,,,,,,#88BA3F,True,hit,433.901071548462,801.275968551636,,5,6,1back_single_main,1,,,,,,,,,,,,,,,,,,,,,,,MA01,no,2024-08-22_08h07.10.569,EXNAT_3_training,2024.1.0,2024-08-22 08h07.51.867027 +0200
,,,,,,3,0,3,0,,,,,,,,,,,,,,,,,,,,,,,,,,,,,#D292F3,False,correct rejection,None,649.332046508789,,6,6,1back_single_main,1,,,,,,,,,,,,,,,,,,,,,,,MA01,no,2024-08-22_08h07.10.569,EXNAT_3_training,2024.1.0,2024-08-22 08h07.51.867027 +0200
,,,,,,3,0,3,0,,,,,,,,,,,,,,,,,,,,,,,,,,,,,#D292F3,True,hit,650.982856750488,1051.75399780273,,7,6,1back_single_main,1,,,,,,,,,,,,,,,,,,,,,,,MA01,no,2024-08-22_08h07.10.569,EXNAT_3_training,2024.1.0,2024-08-22 08h07.51.867027 +0200
,,,,,,3,0,3,0,,,,,,,,,,,,,,,,,,,,,,,,,,,,,#F989A2,False,correct rejection,None,734.464168548584,,8,6,1back_single_main,1,,,,,,,,,,,,,,,,,,,,,,,MA01,no,2024-08-22_08h07.10.569,EXNAT_3_training,2024.1.0,2024-08-22 08h07.51.867027 +0200
,,,,,,3,0,3,0,,,,,,,,,,,,,,,,,,,,,,,,,,,,,#88BA3F,False,correct rejection,None,751.175880432129,,9,6,1back_single_main,1,,,,,,,,,,,,,,,,,,,,,,,MA01,no,2024-08-22_08h07.10.569,EXNAT_3_training,2024.1.0,2024-08-22 08h07.51.867027 +0200
,,,,,,3,0,3,0,,,,,,,,,,,,,,,,,,,,,,,,,,,,,#F989A2,False,correct rejection,None,717.761039733887,,10,6,1back_single_main,1,,,,,,,,,,,,,,,,,,,,,,,MA01,no,2024-08-22_08h07.10.569,EXNAT_3_training,2024.1.0,2024-08-22 08h07.51.867027 +0200
,,,,,,3,0,3,0,,,,,,,,,,,,,,,,,,,,,,,,,,,,,#F989A2,True,hit,500.68998336792,817.969083786011,,11,6,1back_single_main,1,,,,,,,,,,,,,,,,,,,,,,,MA01,no,2024-08-22_08h07.10.569,EXNAT_3_training,2024.1.0,2024-08-22 08h07.51.867027 +0200
,,,,,,3,0,3,0,,,,,,,,,,,,,,,,,,,,,,,,,,,,,#2AB7EF,False,correct rejection,None,500.692129135132,,12,6,1back_single_main,1,,,,,,,,,,,,,,,,,,,,,,,MA01,no,2024-08-22_08h07.10.569,EXNAT_3_training,2024.1.0,2024-08-22 08h07.51.867027 +0200
,,,,,,3,0,3,0,,,,,,,,,,,,,,,,,,,,,,,,,,,,,#F989A2,False,correct rejection,None,717.782974243164,,13,6,1back_single_main,1,,,,,,,,,,,,,,,,,,,,,,,MA01,no,2024-08-22_08h07.10.569,EXNAT_3_training,2024.1.0,2024-08-22 08h07.51.867027 +0200
,,,,,,3,0,3,0,,,,,,,,,,,,,,,,,,,,,,,,,,,,,#88BA3F,False,correct rejection,None,483.989953994751,,14,6,1back_single_main,1,,,,,,,,,,,,,,,,,,,,,,,MA01,no,2024-08-22_08h07.10.569,EXNAT_3_training,2024.1.0,2024-08-22 08h07.51.867027 +0200
,,,,,,3,0,3,0,,,,,,,,,,,,,,,,,,,,,,,,,,,,,#88BA3F,True,hit,468.998908996582,769.57893371582,,15,6,1back_single_main,1,,,,,,,,,,,,,,,,,,,,,,,MA01,no,2024-08-22_08h07.10.569,EXNAT_3_training,2024.1.0,2024-08-22 08h07.51.867027 +0200
,,,,,,3,0,3,0,,,,,,,,,,,,,,,,,,,,,,,,,,,,,#D292F3,False,correct rejection,None,550.76789855957,,16,6,1back_single_main,1,,,,,,,,,,,,,,,,,,,,,,,MA01,no,2024-08-22_08h07.10.569,EXNAT_3_training,2024.1.0,2024-08-22 08h07.51.867027 +0200
,,,,,,3,0,3,0,,,,,,,,,,,,,,,,,,,,,,,,,,,,,#88BA3F,False,correct rejection,None,550.77600479126,,17,6,1back_single_main,1,,,,,,,,,,,,,,,,,,,,,,,MA01,no,2024-08-22_08h07.10.569,EXNAT_3_training,2024.1.0,2024-08-22 08h07.51.867027 +0200
,,,,,,3,0,3,0,,,,,,,,,,,,,,,,,,,,,,,,,,,,,#D292F3,False,correct rejection,None,565.834999084473,,18,6,1back_single_main,1,,,,,,,,,,,,,,,,,,,,,,,MA01,no,2024-08-22_08h07.10.569,EXNAT_3_training,2024.1.0,2024-08-22 08h07.51.867027 +0200
,,,,,,3,0,3,0,,,,,,,,,,,,,,,,,,,,,,,,,,,,,#F989A2,False,correct rejection,None,517.381906509399,,19,6,1back_single_main,1,,,,,,,,,,,,,,,,,,,,,,,MA01,no,2024-08-22_08h07.10.569,EXNAT_3_training,2024.1.0,2024-08-22 08h07.51.867027 +0200
,,,,,,3,0,3,0,,,,,,,,,,,,,,,,,,,,,,,,,,,,,#2AB7EF,False,correct rejection,None,650.990962982178,,20,6,1back_single_main,1,,,,,,,,,,,,,,,,,,,,,,,MA01,no,2024-08-22_08h07.10.569,EXNAT_3_training,2024.1.0,2024-08-22 08h07.51.867027 +0200
,,,,,,3,0,3,0,,,,,,,,,,,,,,,,,,,,,,,,,,,,,#D292F3,False,correct rejection,None,650.957107543945,,21,6,1back_single_main,1,,,,,,,,,,,,,,,,,,,,,,,MA01,no,2024-08-22_08h07.10.569,EXNAT_3_training,2024.1.0,2024-08-22 08h07.51.867027 +0200
,,,,,,3,0,3,0,,,,,,,,,,,,,,,,,,,,,,,,,,,,,#2AB7EF,False,correct rejection,None,567.471027374268,,22,6,1back_single_main,1,,,,,,,,,,,,,,,,,,,,,,,MA01,no,2024-08-22_08h07.10.569,EXNAT_3_training,2024.1.0,2024-08-22 08h07.51.867027 +0200
,,,,,,3,0,3,0,,,,,,,,,,,,,,,,,,,,,,,,,,,,,#F989A2,False,correct rejection,None,467.288970947266,,23,6,1back_single_main,1,,,,,,,,,,,,,,,,,,,,,,,MA01,no,2024-08-22_08h07.10.569,EXNAT_3_training,2024.1.0,2024-08-22 08h07.51.867027 +0200
,,,,,,3,0,3,0,,,,,,,,,,,,,,,,,,,,,,,,,,,,,#2AB7EF,False,correct rejection,None,567.487955093384,,24,6,1back_single_main,1,,,,,,,,,,,,,,,,,,,,,,,MA01,no,2024-08-22_08h07.10.569,EXNAT_3_training,2024.1.0,2024-08-22 08h07.51.867027 +0200
,,,,,,3,0,3,0,,,,,,,,,,,,,,,,,,,,,,,,,,,,,#88BA3F,False,correct rejection,None,549.129009246826,,25,6,1back_single_main,1,,,,,,,,,,,,,,,,,,,,,,,MA01,no,2024-08-22_08h07.10.569,EXNAT_3_training,2024.1.0,2024-08-22 08h07.51.867027 +0200
,,,,,,3,0,3,0,,,,,,,,,,,,,,,,,,,,,,,,,,,,,#F989A2,False,correct rejection,None,567.489147186279,,26,6,1back_single_main,1,,,,,,,,,,,,,,,,,,,,,,,MA01,no,2024-08-22_08h07.10.569,EXNAT_3_training,2024.1.0,2024-08-22 08h07.51.867027 +0200
,,,,,,3,0,3,0,,,,,,,,,,,,,,,,,,,,,,,,,,,,,#D292F3,False,correct rejection,None,634.286165237427,,27,6,1back_single_main,1,,,,,,,,,,,,,,,,,,,,,,,MA01,no,2024-08-22_08h07.10.569,EXNAT_3_training,2024.1.0,2024-08-22 08h07.51.867027 +0200
,,,,,,3,0,3,0,,,,,,,,,,,,,,,,,,,,,,,,,,,,,#88BA3F,False,correct rejection,None,617.559194564819,,28,6,1back_single_main,1,,,,,,,,,,,,,,,,,,,,,,,MA01,no,2024-08-22_08h07.10.569,EXNAT_3_training,2024.1.0,2024-08-22 08h07.51.867027 +0200
,,,,,,3,0,3,0,,,,,,,,,,,,,,,,,,,,,,,,,,,,,#88BA3F,True,hit,868.044853210449,1168.63298416138,,29,6,1back_single_main,1,,,,,,,,,,,,,,,,,,,,,,,MA01,no,2024-08-22_08h07.10.569,EXNAT_3_training,2024.1.0,2024-08-22 08h07.51.867027 +0200
,,,,,,3,0,3,0,,,,,,,,,,,,,,,,,,,,,,,,,,,,,#D292F3,False,correct rejection,None,483.991146087647,,30,6,1back_single_main,1,,,,,,,,,,,,,,,,,,,,,,,MA01,no,2024-08-22_08h07.10.569,EXNAT_3_training,2024.1.0,2024-08-22 08h07.51.867027 +0200
,,,,,,3,0,3,0,,,,,,,,,,,,,,,,,,,,,,,,,,,,,#F989A2,False,correct rejection,None,600.903034210205,,31,6,1back_single_main,1,,,,,,,,,,,,,,,,,,,,,,,MA01,no,2024-08-22_08h07.10.569,EXNAT_3_training,2024.1.0,2024-08-22 08h07.51.867027 +0200
,,,,,,3,0,3,0,,,,,,,,,,,,,,,,,,,,,,,,,,,,,#2AB7EF,False,correct rejection,None,634.281158447266,,32,6,1back_single_main,1,,,,,,,,,,,,,,,,,,,,,,,MA01,no,2024-08-22_08h07.10.569,EXNAT_3_training,2024.1.0,2024-08-22 08h07.51.867027 +0200
,,,,,,3,0,3,0,,,,,,,,,,,,,,,,,,,,,,,,,,,,,#2AB7EF,True,hit,684.376001358032,969.986915588379,,33,6,1back_single_main,1,,,,,,,,,,,,,,,,,,,,,,,MA01,no,2024-08-22_08h07.10.569,EXNAT_3_training,2024.1.0,2024-08-22 08h07.51.867027 +0200
,,,,,,3,0,3,0,,,,,,,,,,,,,,,,,,,,,,,,,,,,,#D292F3,False,correct rejection,None,751.172065734863,,34,6,1back_single_main,1,,,,,,,,,,,,,,,,,,,,,,,MA01,no,2024-08-22_08h07.10.569,EXNAT_3_training,2024.1.0,2024-08-22 08h07.51.867027 +0200
,,,,,,3,0,3,0,,,,,,,,,,,,,,,,,,,,,,,,,,,,,#F989A2,False,correct rejection,None,567.507028579712,,35,6,1back_single_main,1,,,,,,,,,,,,,,,,,,,,,,,MA01,no,2024-08-22_08h07.10.569,EXNAT_3_training,2024.1.0,2024-08-22 08h07.51.867027 +0200
,,,,,,3,0,3,0,,,,,,,,,,,,,,,,,,,,,,,,,,,,,#2AB7EF,False,correct rejection,None,667.652130126953,,36,6,1back_single_main,1,,,,,,,,,,,,,,,,,,,,,,,MA01,no,2024-08-22_08h07.10.569,EXNAT_3_training,2024.1.0,2024-08-22 08h07.51.867027 +0200
,,,,,,3,0,3,0,,,,,,,,,,,,,,,,,,,,,,,,,,,,,#D292F3,False,correct rejection,None,632.627010345459,,37,6,1back_single_main,1,,,,,,,,,,,,,,,,,,,,,,,MA01,no,2024-08-22_08h07.10.569,EXNAT_3_training,2024.1.0,2024-08-22 08h07.51.867027 +0200
,,,,,,3,0,3,0,,,,,,,,,,,,,,,,,,,,,,,,,,,,,#2AB7EF,False,correct rejection,None,634.287118911743,,38,6,1back_single_main,1,,,,,,,,,,,,,,,,,,,,,,,MA01,no,2024-08-22_08h07.10.569,EXNAT_3_training,2024.1.0,2024-08-22 08h07.51.867027 +0200
,,,,,,3,0,3,0,,,,,,,,,,,,,,,,,,,,,,,,,,,,,#88BA3F,False,correct rejection,None,686.111927032471,,39,6,1back_single_main,1,,,,,,,,,,,,,,,,,,,,,,,MA01,no,2024-08-22_08h07.10.569,EXNAT_3_training,2024.1.0,2024-08-22 08h07.51.867027 +0200
,,,,,,3,0,3,0,,,,,,,,,,,,,,,,,,,,,,,,,,,,,#F989A2,False,correct rejection,None,567.462921142578,,40,6,1back_single_main,1,,,,,,,,,,,,,,,,,,,,,,,MA01,no,2024-08-22_08h07.10.569,EXNAT_3_training,2024.1.0,2024-08-22 08h07.51.867027 +0200
,,,,,,3,0,3,0,,,,,,,,,,,,,,,,,,,,,,,,,,,,,#D292F3,False,correct rejection,None,634.292840957642,,41,6,1back_single_main,1,,,,,,,,,,,,,,,,,,,,,,,MA01,no,2024-08-22_08h07.10.569,EXNAT_3_training,2024.1.0,2024-08-22 08h07.51.867027 +0200
,,,,,,3,0,3,0,,,,,,,,,,,,,,,,,,,,,,,,,,,,,#2AB7EF,False,correct rejection,None,534.080028533936,,42,6,1back_single_main,1,,,,,,,,,,,,,,,,,,,,,,,MA01,no,2024-08-22_08h07.10.569,EXNAT_3_training,2024.1.0,2024-08-22 08h07.51.867027 +0200
,,,,,,3,0,3,0,,,,,,,,,,,,,,,,,,,,,,,,,,,,,#88BA3F,False,correct rejection,None,517.380952835083,,43,6,1back_single_main,1,,,,,,,,,,,,,,,,,,,,,,,MA01,no,2024-08-22_08h07.10.569,EXNAT_3_training,2024.1.0,2024-08-22 08h07.51.867027 +0200
,,,,,,3,0,3,0,,,,,,,,,,,,,,,,,,,,,,,,,,,,,#2AB7EF,False,correct rejection,None,584.146022796631,,44,6,1back_single_main,1,,,,,,,,,,,,,,,,,,,,,,,MA01,no,2024-08-22_08h07.10.569,EXNAT_3_training,2024.1.0,2024-08-22 08h07.51.867027 +0200
,,,,,,3,0,3,0,,,,,,,,,,,,,,,,,,,,,,,,,,,,,#D292F3,False,correct rejection,None,499.008893966675,,45,6,1back_single_main,1,,,,,,,,,,,,,,,,,,,,,,,MA01,no,2024-08-22_08h07.10.569,EXNAT_3_training,2024.1.0,2024-08-22 08h07.51.867027 +0200
,,,,,,3,0,3,0,,,,,,,,,,,,,,,,,,,,,,,,,,,,,#88BA3F,False,correct rejection,None,617.547988891602,,46,6,1back_single_main,1,,,,,,,,,,,,,,,,,,,,,,,MA01,no,2024-08-22_08h07.10.569,EXNAT_3_training,2024.1.0,2024-08-22 08h07.51.867027 +0200
,,,,,,3,0,3,0,,,,,,,,,,,,,,,,,,,,,,,,,,,,,#F989A2,False,correct rejection,None,685.994148254395,,47,6,1back_single_main,1,,,,,,,,,,,,,,,,,,,,,,,MA01,no,2024-08-22_08h07.10.569,EXNAT_3_training,2024.1.0,2024-08-22 08h07.51.867027 +0200
,,,,,,3,0,3,0,,,,,,,,,,,,,,,,,,,,,,,,,,,,,#F989A2,True,hit,901.405811309814,1185.27293205261,,48,6,1back_single_main,1,,,,,,,,,,,,,,,,,,,,,,,MA01,no,2024-08-22_08h07.10.569,EXNAT_3_training,2024.1.0,2024-08-22 08h07.51.867027 +0200
,,,,,,3,0,3,0,,,,,,,,,,,,,,,,,,,,,,,,,,,,,#F989A2,True,hit,834.650993347168,1118.54195594788,,49,6,1back_single_main,1,,,,,,,,,,,,,,,,,,,,,,,MA01,no,2024-08-22_08h07.10.569,EXNAT_3_training,2024.1.0,2024-08-22 08h07.51.867027 +0200
,,,,,,3,0,3,0,,,,,,,,,,,,,,,,,,,,,,,,,,,,,#2AB7EF,False,correct rejection,None,701.082944869995,,50,6,1back_single_main,1,,,,,,,,,,,,,,,,,,,,,,,MA01,no,2024-08-22_08h07.10.569,EXNAT_3_training,2024.1.0,2024-08-22 08h07.51.867027 +0200
,,,,,,3,0,3,0,,,,,,,,,,,,,,,,,,,,,,,,,,,,,#88BA3F,False,correct rejection,None,584.179878234863,,51,6,1back_single_main,1,,,,,,,,,,,,,,,,,,,,,,,MA01,no,2024-08-22_08h07.10.569,EXNAT_3_training,2024.1.0,2024-08-22 08h07.51.867027 +0200
,,,,,,3,0,3,0,,,,,,,,,,,,,,,,,,,,,,,,,,,,,#F989A2,False,correct rejection,None,667.693138122559,,52,6,1back_single_main,1,,,,,,,,,,,,,,,,,,,,,,,MA01,no,2024-08-22_08h07.10.569,EXNAT_3_training,2024.1.0,2024-08-22 08h07.51.867027 +0200
