DisplayImage	corrAns	ishihara_pics.thisRepN	ishihara_pics.thisTrialN	ishihara_pics.thisN	ishihara_pics.thisIndex	blocks.thisRepN	blocks.thisTrialN	blocks.thisN	blocks.thisIndex	thisRow.t	notes	Settings.started	Settings.stopped	demographics.started	demographics.stopped	demographic_form.index	demographic_form.itemText	demographic_form.type	demographic_form.font	demographic_form.markerColor	demographic_form.response	demographic_form.rt	education.started	education.stopped	edu_form.index	edu_form.itemText	edu_form.type	edu_form.font	edu_form.markerColor	edu_form.response	edu_form.rt	Ishihara.started	Ishihara.stopped	ishihara_number.text	no_text_blocks_self_paced.started	no_text_blocks_self_paced.stopped	text_blocks_self_paced.started	colour	target	nback_response	nback_RT	duration	text_nr	trial_nr	block_nr	block_name	block_kind	word	global_onset_time	question	button_pressed	chosen_ans	ans_correct	block_nr_exp	n-back_level	text_blocks_self_paced.stopped	text_blocks_paced.started	text_blocks_paced.stopped	no_text_blocks_paced.started	no_text_blocks_paced.stopped	pseudotext.started	pseudotext.stopped	curr_0back_target	RT_per_letter_baseline	RT_per_letter_0back	RT_per_letter_1bck	RT_per_letter_2bck	RT_per_rect_1back_single	RT_per_rect_2back_single	end.started	end.stopped	participant	self-paced_blocks	paced_blocks	testing_mode	date	expName	psychopyVersion	expStart	
												0.023114919662475586	0.023485898971557617																																																											MA02	yes	yes	no	2024-08-28_09h31.14.714	EXNAT_3_training	2024.1.0	2024-08-28 09h33.31.851922 +0200	
														0.0234987735748291	44.45662784576416	0.0	Willkommen zum Experiment!	heading	None	None																																																				MA02	yes	yes	no	2024-08-28_09h31.14.714	EXNAT_3_training	2024.1.0	2024-08-28 09h33.31.851922 +0200	
																0.0	Bitte beantworten Sie zunächst die folgenden Fragen:	description	None	None																																																				MA02	yes	yes	no	2024-08-28_09h31.14.714	EXNAT_3_training	2024.1.0	2024-08-28 09h33.31.851922 +0200	
																gender	Welches Geschlecht steht in Ihrem Ausweis?	radio	None	None	Weiblich	18.06512999534607																																																		MA02	yes	yes	no	2024-08-28_09h31.14.714	EXNAT_3_training	2024.1.0	2024-08-28 09h33.31.851922 +0200	
																age	Wie alt sind Sie?	free text	None	None	40	None																																																		MA02	yes	yes	no	2024-08-28_09h31.14.714	EXNAT_3_training	2024.1.0	2024-08-28 09h33.31.851922 +0200	
																language	Ist Deutsch Ihre Muttersprache?	radio	None	None	Ja	24.552808046340942																																																		MA02	yes	yes	no	2024-08-28_09h31.14.714	EXNAT_3_training	2024.1.0	2024-08-28 09h33.31.851922 +0200	
																dyslexia	Haben Sie eine Leseschwäche?	radio	None	None	Nein	28.109922170639038																																																		MA02	yes	yes	no	2024-08-28_09h31.14.714	EXNAT_3_training	2024.1.0	2024-08-28 09h33.31.851922 +0200	
																vision_glasses	Tragen Sie eine Brille?	radio	None	None	Nein	13.701843023300171																																																		MA02	yes	yes	no	2024-08-28_09h31.14.714	EXNAT_3_training	2024.1.0	2024-08-28 09h33.31.851922 +0200	
																vision_lenses	Tragen Sie Kontaktlinsen?	radio	None	None	Nein	16.82537603378296																																																		MA02	yes	yes	no	2024-08-28_09h31.14.714	EXNAT_3_training	2024.1.0	2024-08-28 09h33.31.851922 +0200	
																handedness	Sind Sie rechtshändig?	radio	None	None	Ja	16.426798820495605																																																		MA02	yes	yes	no	2024-08-28_09h31.14.714	EXNAT_3_training	2024.1.0	2024-08-28 09h33.31.851922 +0200	
																																																																								MA02	yes	yes	no	2024-08-28_09h31.14.714	EXNAT_3_training	2024.1.0	2024-08-28 09h33.31.851922 +0200	
																							44.45677399635315	101.98530888557434	0.0	Bitte beantworten Sie die folgenden Fragen zu Ihrer Ausbildung:	description	None	None																																											MA02	yes	yes	no	2024-08-28_09h31.14.714	EXNAT_3_training	2024.1.0	2024-08-28 09h33.31.851922 +0200	
																									education	Was ist Ihr höchster Bildungsabschluss?	radio	None	None	abgeschlossenes Studium	5.7685019969940186																																									MA02	yes	yes	no	2024-08-28_09h31.14.714	EXNAT_3_training	2024.1.0	2024-08-28 09h33.31.851922 +0200	
																									edu_intro	Wie viele Jahre verbrachten Sie insgesamt mit:	description	None	None																																											MA02	yes	yes	no	2024-08-28_09h31.14.714	EXNAT_3_training	2024.1.0	2024-08-28 09h33.31.851922 +0200	
																									edu_school_years	Schule	free text	None	None	13	None																																									MA02	yes	yes	no	2024-08-28_09h31.14.714	EXNAT_3_training	2024.1.0	2024-08-28 09h33.31.851922 +0200	
																									edu_eveningschool_years	Abendschule	free text	None	None	0	None																																									MA02	yes	yes	no	2024-08-28_09h31.14.714	EXNAT_3_training	2024.1.0	2024-08-28 09h33.31.851922 +0200	
																									edu_training_years	Ausbildung	free text	None	None	3	None																																									MA02	yes	yes	no	2024-08-28_09h31.14.714	EXNAT_3_training	2024.1.0	2024-08-28 09h33.31.851922 +0200	
																									edu_training_GDR_years	Fachschule	free text	None	None	0	None																																									MA02	yes	yes	no	2024-08-28_09h31.14.714	EXNAT_3_training	2024.1.0	2024-08-28 09h33.31.851922 +0200	
																									edu_uni_years	Universität/Hochschule	free text	None	None	3	None																																									MA02	yes	yes	no	2024-08-28_09h31.14.714	EXNAT_3_training	2024.1.0	2024-08-28 09h33.31.851922 +0200	
																									edu_other_years	Sonstiges	free text	None	None	2	None																																									MA02	yes	yes	no	2024-08-28_09h31.14.714	EXNAT_3_training	2024.1.0	2024-08-28 09h33.31.851922 +0200	
																									edu_profession	Was ist Ihr derzeitiger/letzter Beruf?	free text	None	None	Angestellte	None																																									MA02	yes	yes	no	2024-08-28_09h31.14.714	EXNAT_3_training	2024.1.0	2024-08-28 09h33.31.851922 +0200	
																																																																								MA02	yes	yes	no	2024-08-28_09h31.14.714	EXNAT_3_training	2024.1.0	2024-08-28 09h33.31.851922 +0200	
																																																																								MA02	yes	yes	no	2024-08-28_09h31.14.714	EXNAT_3_training	2024.1.0	2024-08-28 09h33.31.851922 +0200	
Stimuli_and_Resources/Ishihara_Colour_Vision_Test/ishihara_test6_15.png	15	0	0	0	5					114.3253059387207																						114.26645684242249	120.82253694534302	15																																						MA02	yes	yes	no	2024-08-28_09h31.14.714	EXNAT_3_training	2024.1.0	2024-08-28 09h33.31.851922 +0200	
Stimuli_and_Resources/Ishihara_Colour_Vision_Test/ishihara_test4_78.png	78	0	1	1	3					121.87319779396057																						121.82357692718506	125.17929887771606	78																																						MA02	yes	yes	no	2024-08-28_09h31.14.714	EXNAT_3_training	2024.1.0	2024-08-28 09h33.31.851922 +0200	
Stimuli_and_Resources/Ishihara_Colour_Vision_Test/ishihara_test5_23.png	23	0	2	2	4					126.23168778419495																						126.18204879760742	129.18705487251282	23																																						MA02	yes	yes	no	2024-08-28_09h31.14.714	EXNAT_3_training	2024.1.0	2024-08-28 09h33.31.851922 +0200	
Stimuli_and_Resources/Ishihara_Colour_Vision_Test/ishihara_test1_70.png	70	0	3	3	0					130.23823285102844																						130.18869280815125	133.19488191604614	70																																						MA02	yes	yes	no	2024-08-28_09h31.14.714	EXNAT_3_training	2024.1.0	2024-08-28 09h33.31.851922 +0200	
Stimuli_and_Resources/Ishihara_Colour_Vision_Test/ishihara_test3_21.png	21	0	4	4	2					134.24600100517273																						134.19645380973816	136.98668384552002	21																																						MA02	yes	yes	no	2024-08-28_09h31.14.714	EXNAT_3_training	2024.1.0	2024-08-28 09h33.31.851922 +0200	
Stimuli_and_Resources/Ishihara_Colour_Vision_Test/ishihara_test2_17.png	17	0	5	5	1					138.03801083564758																						137.98885583877563	140.47736883163452	17																																						MA02	yes	yes	no	2024-08-28_09h31.14.714	EXNAT_3_training	2024.1.0	2024-08-28 09h33.31.851922 +0200	
						0	0	0	0	141.4948489665985																									141.4787938594818	141.49491786956787	141.4949278831482	#D292F3	None	None	None	1500	reading_bl_training_text	1	0	Reading_Baseline_training_click	None	Auf																								MA02	yes	yes	no	2024-08-28_09h31.14.714	EXNAT_3_training	2024.1.0	2024-08-28 09h33.31.851922 +0200	
						0	0	0	0																													#88BA3F	None	None	None	197.767972946167	reading_bl_training_text	2	0	Reading_Baseline_training_click	None	dem																								MA02	yes	yes	no	2024-08-28_09h31.14.714	EXNAT_3_training	2024.1.0	2024-08-28 09h33.31.851922 +0200	
						0	0	0	0																													#F989A2	None	None	None	1500	reading_bl_training_text	3	0	Reading_Baseline_training_click	None	großen																								MA02	yes	yes	no	2024-08-28_09h31.14.714	EXNAT_3_training	2024.1.0	2024-08-28 09h33.31.851922 +0200	
						0	0	0	0																													#F989A2	None	None	None	781.1501026153564	reading_bl_training_text	4	0	Reading_Baseline_training_click	None	"Passagierdampfer,"																								MA02	yes	yes	no	2024-08-28_09h31.14.714	EXNAT_3_training	2024.1.0	2024-08-28 09h33.31.851922 +0200	
						0	0	0	0																													#2AB7EF	None	None	None	1182.0311546325684	reading_bl_training_text	5	0	Reading_Baseline_training_click	None	der																								MA02	yes	yes	no	2024-08-28_09h31.14.714	EXNAT_3_training	2024.1.0	2024-08-28 09h33.31.851922 +0200	
						0	0	0	0																													#D292F3	None	None	None	832.848072052002	reading_bl_training_text	6	0	Reading_Baseline_training_click	None	um																								MA02	yes	yes	no	2024-08-28_09h31.14.714	EXNAT_3_training	2024.1.0	2024-08-28 09h33.31.851922 +0200	
						0	0	0	0																													#D292F3	None	None	None	850.3491878509521	reading_bl_training_text	7	0	Reading_Baseline_training_click	None	Mitternacht																								MA02	yes	yes	no	2024-08-28_09h31.14.714	EXNAT_3_training	2024.1.0	2024-08-28 09h33.31.851922 +0200	
						0	0	0	0																													#D292F3	None	None	None	999.169111251831	reading_bl_training_text	8	0	Reading_Baseline_training_click	None	von																								MA02	yes	yes	no	2024-08-28_09h31.14.714	EXNAT_3_training	2024.1.0	2024-08-28 09h33.31.851922 +0200	
						0	0	0	0																													#2AB7EF	None	None	None	699.2080211639404	reading_bl_training_text	9	0	Reading_Baseline_training_click	None	New																								MA02	yes	yes	no	2024-08-28_09h31.14.714	EXNAT_3_training	2024.1.0	2024-08-28 09h33.31.851922 +0200	
						0	0	0	0																													#88BA3F	None	None	None	615.0708198547363	reading_bl_training_text	10	0	Reading_Baseline_training_click	None	York																								MA02	yes	yes	no	2024-08-28_09h31.14.714	EXNAT_3_training	2024.1.0	2024-08-28 09h33.31.851922 +0200	
						0	0	0	0																													#2AB7EF	None	None	None	581.8548202514648	reading_bl_training_text	11	0	Reading_Baseline_training_click	None	nach																								MA02	yes	yes	no	2024-08-28_09h31.14.714	EXNAT_3_training	2024.1.0	2024-08-28 09h33.31.851922 +0200	
						0	0	0	0																													#88BA3F	None	None	None	731.9760322570801	reading_bl_training_text	12	0	Reading_Baseline_training_click	None	Buenos																								MA02	yes	yes	no	2024-08-28_09h31.14.714	EXNAT_3_training	2024.1.0	2024-08-28 09h33.31.851922 +0200	
						0	0	0	0																													#2AB7EF	None	None	None	648.7171649932861	reading_bl_training_text	13	0	Reading_Baseline_training_click	None	Aires																								MA02	yes	yes	no	2024-08-28_09h31.14.714	EXNAT_3_training	2024.1.0	2024-08-28 09h33.31.851922 +0200	
						0	0	0	0																													#D292F3	None	None	None	865.5209541320801	reading_bl_training_text	14	0	Reading_Baseline_training_click	None	abgehen																								MA02	yes	yes	no	2024-08-28_09h31.14.714	EXNAT_3_training	2024.1.0	2024-08-28 09h33.31.851922 +0200	
						0	0	0	0																													#F989A2	None	None	None	732.1100234985352	reading_bl_training_text	15	0	Reading_Baseline_training_click	None	"sollte,"																								MA02	yes	yes	no	2024-08-28_09h31.14.714	EXNAT_3_training	2024.1.0	2024-08-28 09h33.31.851922 +0200	
						0	0	0	0																													#2AB7EF	None	None	None	832.1239948272705	reading_bl_training_text	16	0	Reading_Baseline_training_click	None	herrschte																								MA02	yes	yes	no	2024-08-28_09h31.14.714	EXNAT_3_training	2024.1.0	2024-08-28 09h33.31.851922 +0200	
						0	0	0	0																													#2AB7EF	None	None	None	916.0158634185791	reading_bl_training_text	17	0	Reading_Baseline_training_click	None	geschäftiges																								MA02	yes	yes	no	2024-08-28_09h31.14.714	EXNAT_3_training	2024.1.0	2024-08-28 09h33.31.851922 +0200	
						0	0	0	0																													#D292F3	None	None	None	831.7708969116211	reading_bl_training_text	18	0	Reading_Baseline_training_click	None	Treiben.																								MA02	yes	yes	no	2024-08-28_09h31.14.714	EXNAT_3_training	2024.1.0	2024-08-28 09h33.31.851922 +0200	
						0	0	0	0																													#2AB7EF	None	None	None	832.2720527648926	reading_bl_training_text	19	0	Reading_Baseline_training_click	None	Einige																								MA02	yes	yes	no	2024-08-28_09h31.14.714	EXNAT_3_training	2024.1.0	2024-08-28 09h33.31.851922 +0200	
						0	0	0	0																													#88BA3F	None	None	None	897.3388671875	reading_bl_training_text	20	0	Reading_Baseline_training_click	None	Reporter																								MA02	yes	yes	no	2024-08-28_09h31.14.714	EXNAT_3_training	2024.1.0	2024-08-28 09h33.31.851922 +0200	
						0	0	0	0																													#D292F3	None	None	None	1166.68701171875	reading_bl_training_text	21	0	Reading_Baseline_training_click	None	interviewten																								MA02	yes	yes	no	2024-08-28_09h31.14.714	EXNAT_3_training	2024.1.0	2024-08-28 09h33.31.851922 +0200	
						0	0	0	0																													#F989A2	None	None	None	617.5739765167236	reading_bl_training_text	22	0	Reading_Baseline_training_click	None	den																								MA02	yes	yes	no	2024-08-28_09h31.14.714	EXNAT_3_training	2024.1.0	2024-08-28 09h33.31.851922 +0200	
						0	0	0	0																													#88BA3F	None	None	None	798.8371849060059	reading_bl_training_text	23	0	Reading_Baseline_training_click	None	berühmten																								MA02	yes	yes	no	2024-08-28_09h31.14.714	EXNAT_3_training	2024.1.0	2024-08-28 09h33.31.851922 +0200	
						0	0	0	0																													#88BA3F	None	None	None	1014.5590305328369	reading_bl_training_text	24	0	Reading_Baseline_training_click	None	Weltschachmeister																								MA02	yes	yes	no	2024-08-28_09h31.14.714	EXNAT_3_training	2024.1.0	2024-08-28 09h33.31.851922 +0200	
						0	0	0	0																													#D292F3	None	None	None	799.1740703582764	reading_bl_training_text	25	0	Reading_Baseline_training_click	None	Mirko																								MA02	yes	yes	no	2024-08-28_09h31.14.714	EXNAT_3_training	2024.1.0	2024-08-28 09h33.31.851922 +0200	
						0	0	0	0																													#F989A2	None	None	None	1516.7300701141357	reading_bl_training_text	26	0	Reading_Baseline_training_click	None	"Czentovic,"																								MA02	yes	yes	no	2024-08-28_09h31.14.714	EXNAT_3_training	2024.1.0	2024-08-28 09h33.31.851922 +0200	
						0	0	0	0																													#D292F3	None	None	None	964.1621112823486	reading_bl_training_text	27	0	Reading_Baseline_training_click	None	der																								MA02	yes	yes	no	2024-08-28_09h31.14.714	EXNAT_3_training	2024.1.0	2024-08-28 09h33.31.851922 +0200	
						0	0	0	0																													#2AB7EF	None	None	None	615.8270835876465	reading_bl_training_text	28	0	Reading_Baseline_training_click	None	nach																								MA02	yes	yes	no	2024-08-28_09h31.14.714	EXNAT_3_training	2024.1.0	2024-08-28 09h33.31.851922 +0200	
						0	0	0	0																													#F989A2	None	None	None	800.2800941467285	reading_bl_training_text	29	0	Reading_Baseline_training_click	None	Argentinien																								MA02	yes	yes	no	2024-08-28_09h31.14.714	EXNAT_3_training	2024.1.0	2024-08-28 09h33.31.851922 +0200	
						0	0	0	0																													#88BA3F	None	None	None	917.6688194274902	reading_bl_training_text	30	0	Reading_Baseline_training_click	None	reiste.																								MA02	yes	yes	no	2024-08-28_09h31.14.714	EXNAT_3_training	2024.1.0	2024-08-28 09h33.31.851922 +0200	
						0	0	0	0																																		reading_bl_training_text			Reading_Baseline_training_click			202.03146386146545	Q1	NA	NA	False	1	None																	MA02	yes	yes	no	2024-08-28_09h31.14.714	EXNAT_3_training	2024.1.0	2024-08-28 09h33.31.851922 +0200	
						0	0	0	0																																		reading_bl_training_text			Reading_Baseline_training_click			212.08795380592346	Q2	3	c	True	1	None																	MA02	yes	yes	no	2024-08-28_09h31.14.714	EXNAT_3_training	2024.1.0	2024-08-28 09h33.31.851922 +0200	
						0	0	0	0																																		reading_bl_training_text			Reading_Baseline_training_click			220.68044877052307	Q3	1	a	True	1	None																	MA02	yes	yes	no	2024-08-28_09h31.14.714	EXNAT_3_training	2024.1.0	2024-08-28 09h33.31.851922 +0200	
						0	0	0	0																																															225.19293093681335	225.1929578781128	225.2320318222046	225.23204493522644	225.24295377731323	225.24297285079956	225.25859999656677										MA02	yes	yes	no	2024-08-28_09h31.14.714	EXNAT_3_training	2024.1.0	2024-08-28 09h33.31.851922 +0200	
						1	0	1	0	225.2750208377838																									225.25892281532288	225.2750768661499	225.27509093284607	#D292F3	None	None	None	1100.6300449371338	text_02	1	1	Reading_Baseline_main_click	None	In																								MA02	yes	yes	no	2024-08-28_09h31.14.714	EXNAT_3_training	2024.1.0	2024-08-28 09h33.31.851922 +0200	
						1	0	1	0																													#F989A2	None	None	None	1147.7949619293213	text_02	2	1	Reading_Baseline_main_click	None	Tansania																								MA02	yes	yes	no	2024-08-28_09h31.14.714	EXNAT_3_training	2024.1.0	2024-08-28 09h33.31.851922 +0200	
						1	0	1	0																													#2AB7EF	None	None	None	548.3529567718506	text_02	3	1	Reading_Baseline_main_click	None	haben																								MA02	yes	yes	no	2024-08-28_09h31.14.714	EXNAT_3_training	2024.1.0	2024-08-28 09h33.31.851922 +0200	
						1	0	1	0																													#2AB7EF	None	None	None	649.3129730224609	text_02	4	1	Reading_Baseline_main_click	None	Forscher																								MA02	yes	yes	no	2024-08-28_09h31.14.714	EXNAT_3_training	2024.1.0	2024-08-28 09h33.31.851922 +0200	
						1	0	1	0																													#D292F3	None	None	None	748.9631175994873	text_02	5	1	Reading_Baseline_main_click	None	Überreste																								MA02	yes	yes	no	2024-08-28_09h31.14.714	EXNAT_3_training	2024.1.0	2024-08-28 09h33.31.851922 +0200	
						1	0	1	0																													#88BA3F	None	None	None	515.5429840087891	text_02	6	1	Reading_Baseline_main_click	None	eines																								MA02	yes	yes	no	2024-08-28_09h31.14.714	EXNAT_3_training	2024.1.0	2024-08-28 09h33.31.851922 +0200	
						1	0	1	0																													#F989A2	None	None	None	913.0730628967285	text_02	7	1	Reading_Baseline_main_click	None	Urzeit-Krokodils																								MA02	yes	yes	no	2024-08-28_09h31.14.714	EXNAT_3_training	2024.1.0	2024-08-28 09h33.31.851922 +0200	
						1	0	1	0																													#88BA3F	None	None	None	781.641960144043	text_02	8	1	Reading_Baseline_main_click	None	entdeckt.																								MA02	yes	yes	no	2024-08-28_09h31.14.714	EXNAT_3_training	2024.1.0	2024-08-28 09h33.31.851922 +0200	
						1	0	1	0																													#88BA3F	None	None	None	667.3510074615479	text_02	9	1	Reading_Baseline_main_click	None	Es																								MA02	yes	yes	no	2024-08-28_09h31.14.714	EXNAT_3_training	2024.1.0	2024-08-28 09h33.31.851922 +0200	
						1	0	1	0																													#D292F3	None	None	None	698.6939907073975	text_02	10	1	Reading_Baseline_main_click	None	zeigt																								MA02	yes	yes	no	2024-08-28_09h31.14.714	EXNAT_3_training	2024.1.0	2024-08-28 09h33.31.851922 +0200	
						1	0	1	0																													#F989A2	None	None	None	831.852912902832	text_02	11	1	Reading_Baseline_main_click	None	Ähnlichkeiten																								MA02	yes	yes	no	2024-08-28_09h31.14.714	EXNAT_3_training	2024.1.0	2024-08-28 09h33.31.851922 +0200	
						1	0	1	0																													#2AB7EF	None	None	None	699.4149684906006	text_02	12	1	Reading_Baseline_main_click	None	zu																								MA02	yes	yes	no	2024-08-28_09h31.14.714	EXNAT_3_training	2024.1.0	2024-08-28 09h33.31.851922 +0200	
						1	0	1	0																													#F989A2	None	None	None	864.966869354248	text_02	13	1	Reading_Baseline_main_click	None	Säugetieren.																								MA02	yes	yes	no	2024-08-28_09h31.14.714	EXNAT_3_training	2024.1.0	2024-08-28 09h33.31.851922 +0200	
						1	0	1	0																													#88BA3F	None	None	None	849.9147891998291	text_02	14	1	Reading_Baseline_main_click	None	Es																								MA02	yes	yes	no	2024-08-28_09h31.14.714	EXNAT_3_training	2024.1.0	2024-08-28 09h33.31.851922 +0200	
						1	0	1	0																													#D292F3	None	None	None	698.3048915863037	text_02	15	1	Reading_Baseline_main_click	None	war																								MA02	yes	yes	no	2024-08-28_09h31.14.714	EXNAT_3_training	2024.1.0	2024-08-28 09h33.31.851922 +0200	
						1	0	1	0																													#2AB7EF	None	None	None	681.5569400787354	text_02	16	1	Reading_Baseline_main_click	None	so																								MA02	yes	yes	no	2024-08-28_09h31.14.714	EXNAT_3_training	2024.1.0	2024-08-28 09h33.31.851922 +0200	
						1	0	1	0																													#F989A2	None	None	None	598.2661247253418	text_02	17	1	Reading_Baseline_main_click	None	groß																								MA02	yes	yes	no	2024-08-28_09h31.14.714	EXNAT_3_training	2024.1.0	2024-08-28 09h33.31.851922 +0200	
						1	0	1	0																													#F989A2	None	None	None	698.9960670471191	text_02	18	1	Reading_Baseline_main_click	None	wie																								MA02	yes	yes	no	2024-08-28_09h31.14.714	EXNAT_3_training	2024.1.0	2024-08-28 09h33.31.851922 +0200	
						1	0	1	0																													#2AB7EF	None	None	None	599.3671417236328	text_02	19	1	Reading_Baseline_main_click	None	eine																								MA02	yes	yes	no	2024-08-28_09h31.14.714	EXNAT_3_training	2024.1.0	2024-08-28 09h33.31.851922 +0200	
						1	0	1	0																													#2AB7EF	None	None	None	698.4210014343262	text_02	20	1	Reading_Baseline_main_click	None	Katze.																								MA02	yes	yes	no	2024-08-28_09h31.14.714	EXNAT_3_training	2024.1.0	2024-08-28 09h33.31.851922 +0200	
						1	0	1	0																													#88BA3F	None	None	None	732.633113861084	text_02	21	1	Reading_Baseline_main_click	None	Das																								MA02	yes	yes	no	2024-08-28_09h31.14.714	EXNAT_3_training	2024.1.0	2024-08-28 09h33.31.851922 +0200	
						1	0	1	0																													#D292F3	None	None	None	682.6090812683105	text_02	22	1	Reading_Baseline_main_click	None	Tier																								MA02	yes	yes	no	2024-08-28_09h31.14.714	EXNAT_3_training	2024.1.0	2024-08-28 09h33.31.851922 +0200	
						1	0	1	0																													#88BA3F	None	None	None	582.3090076446533	text_02	23	1	Reading_Baseline_main_click	None	lebte																								MA02	yes	yes	no	2024-08-28_09h31.14.714	EXNAT_3_training	2024.1.0	2024-08-28 09h33.31.851922 +0200	
						1	0	1	0																													#D292F3	None	None	None	731.3878536224365	text_02	24	1	Reading_Baseline_main_click	None	vor																								MA02	yes	yes	no	2024-08-28_09h31.14.714	EXNAT_3_training	2024.1.0	2024-08-28 09h33.31.851922 +0200	
						1	0	1	0																													#F989A2	None	None	None	615.5781745910645	text_02	25	1	Reading_Baseline_main_click	None	etwa																								MA02	yes	yes	no	2024-08-28_09h31.14.714	EXNAT_3_training	2024.1.0	2024-08-28 09h33.31.851922 +0200	
						1	0	1	0																													#88BA3F	None	None	None	832.2141170501709	text_02	26	1	Reading_Baseline_main_click	None	105																								MA02	yes	yes	no	2024-08-28_09h31.14.714	EXNAT_3_training	2024.1.0	2024-08-28 09h33.31.851922 +0200	
						1	0	1	0																													#D292F3	None	None	None	682.3840141296387	text_02	27	1	Reading_Baseline_main_click	None	Millionen																								MA02	yes	yes	no	2024-08-28_09h31.14.714	EXNAT_3_training	2024.1.0	2024-08-28 09h33.31.851922 +0200	
						1	0	1	0																													#F989A2	None	None	None	665.22216796875	text_02	28	1	Reading_Baseline_main_click	None	Jahren																								MA02	yes	yes	no	2024-08-28_09h31.14.714	EXNAT_3_training	2024.1.0	2024-08-28 09h33.31.851922 +0200	
						1	0	1	0																													#F989A2	None	None	None	699.3930339813232	text_02	29	1	Reading_Baseline_main_click	None	und																								MA02	yes	yes	no	2024-08-28_09h31.14.714	EXNAT_3_training	2024.1.0	2024-08-28 09h33.31.851922 +0200	
						1	0	1	0																													#88BA3F	None	None	None	681.9560527801514	text_02	30	1	Reading_Baseline_main_click	None	jagte																								MA02	yes	yes	no	2024-08-28_09h31.14.714	EXNAT_3_training	2024.1.0	2024-08-28 09h33.31.851922 +0200	
						1	0	1	0																													#2AB7EF	None	None	None	732.0261001586914	text_02	31	1	Reading_Baseline_main_click	None	an																								MA02	yes	yes	no	2024-08-28_09h31.14.714	EXNAT_3_training	2024.1.0	2024-08-28 09h33.31.851922 +0200	
						1	0	1	0																													#88BA3F	None	None	None	698.7237930297852	text_02	32	1	Reading_Baseline_main_click	None	Land																								MA02	yes	yes	no	2024-08-28_09h31.14.714	EXNAT_3_training	2024.1.0	2024-08-28 09h33.31.851922 +0200	
						1	0	1	0																													#D292F3	None	None	None	716.5241241455078	text_02	33	1	Reading_Baseline_main_click	None	nach																								MA02	yes	yes	no	2024-08-28_09h31.14.714	EXNAT_3_training	2024.1.0	2024-08-28 09h33.31.851922 +0200	
						1	0	1	0																													#2AB7EF	None	None	None	847.8538990020752	text_02	34	1	Reading_Baseline_main_click	None	Insekten																								MA02	yes	yes	no	2024-08-28_09h31.14.714	EXNAT_3_training	2024.1.0	2024-08-28 09h33.31.851922 +0200	
						1	0	1	0																													#D292F3	None	None	None	782.8669548034668	text_02	35	1	Reading_Baseline_main_click	None	und																								MA02	yes	yes	no	2024-08-28_09h31.14.714	EXNAT_3_training	2024.1.0	2024-08-28 09h33.31.851922 +0200	
						1	0	1	0																													#2AB7EF	None	None	None	666.856050491333	text_02	36	1	Reading_Baseline_main_click	None	kleinen																								MA02	yes	yes	no	2024-08-28_09h31.14.714	EXNAT_3_training	2024.1.0	2024-08-28 09h33.31.851922 +0200	
						1	0	1	0																													#88BA3F	None	None	None	749.8271465301514	text_02	37	1	Reading_Baseline_main_click	None	Tieren.																								MA02	yes	yes	no	2024-08-28_09h31.14.714	EXNAT_3_training	2024.1.0	2024-08-28 09h33.31.851922 +0200	
						1	0	1	0																													#2AB7EF	None	None	None	716.0229682922363	text_02	38	1	Reading_Baseline_main_click	None	Es																								MA02	yes	yes	no	2024-08-28_09h31.14.714	EXNAT_3_training	2024.1.0	2024-08-28 09h33.31.851922 +0200	
						1	0	1	0																													#F989A2	None	None	None	665.6391620635986	text_02	39	1	Reading_Baseline_main_click	None	besaß																								MA02	yes	yes	no	2024-08-28_09h31.14.714	EXNAT_3_training	2024.1.0	2024-08-28 09h33.31.851922 +0200	
						1	0	1	0																													#F989A2	None	None	None	714.3349647521973	text_02	40	1	Reading_Baseline_main_click	None	ungewöhnliche																								MA02	yes	yes	no	2024-08-28_09h31.14.714	EXNAT_3_training	2024.1.0	2024-08-28 09h33.31.851922 +0200	
						1	0	1	0																													#2AB7EF	None	None	None	781.7738056182861	text_02	41	1	Reading_Baseline_main_click	None	"Merkmale,"																								MA02	yes	yes	no	2024-08-28_09h31.14.714	EXNAT_3_training	2024.1.0	2024-08-28 09h33.31.851922 +0200	
						1	0	1	0																													#88BA3F	None	None	None	733.0842018127441	text_02	42	1	Reading_Baseline_main_click	None	wie																								MA02	yes	yes	no	2024-08-28_09h31.14.714	EXNAT_3_training	2024.1.0	2024-08-28 09h33.31.851922 +0200	
						1	0	1	0																													#D292F3	None	None	None	648.8771438598633	text_02	43	1	Reading_Baseline_main_click	None	weniger																								MA02	yes	yes	no	2024-08-28_09h31.14.714	EXNAT_3_training	2024.1.0	2024-08-28 09h33.31.851922 +0200	
						1	0	1	0																													#88BA3F	None	None	None	815.6328201293945	text_02	44	1	Reading_Baseline_main_click	None	Zähne																								MA02	yes	yes	no	2024-08-28_09h31.14.714	EXNAT_3_training	2024.1.0	2024-08-28 09h33.31.851922 +0200	
						1	0	1	0																													#F989A2	None	None	None	615.7960891723633	text_02	45	1	Reading_Baseline_main_click	None	und																								MA02	yes	yes	no	2024-08-28_09h31.14.714	EXNAT_3_training	2024.1.0	2024-08-28 09h33.31.851922 +0200	
						1	0	1	0																													#2AB7EF	None	None	None	615.7221794128418	text_02	46	1	Reading_Baseline_main_click	None	hatte																								MA02	yes	yes	no	2024-08-28_09h31.14.714	EXNAT_3_training	2024.1.0	2024-08-28 09h33.31.851922 +0200	
						1	0	1	0																													#D292F3	None	None	None	814.6071434020996	text_02	47	1	Reading_Baseline_main_click	None	Backenzähne																								MA02	yes	yes	no	2024-08-28_09h31.14.714	EXNAT_3_training	2024.1.0	2024-08-28 09h33.31.851922 +0200	
						1	0	1	0																													#D292F3	None	None	None	716.3650989532471	text_02	48	1	Reading_Baseline_main_click	None	zum																								MA02	yes	yes	no	2024-08-28_09h31.14.714	EXNAT_3_training	2024.1.0	2024-08-28 09h33.31.851922 +0200	
						1	0	1	0																													#88BA3F	None	None	None	749.2549419403076	text_02	49	1	Reading_Baseline_main_click	None	Kauen																								MA02	yes	yes	no	2024-08-28_09h31.14.714	EXNAT_3_training	2024.1.0	2024-08-28 09h33.31.851922 +0200	
						1	0	1	0																													#88BA3F	None	None	None	747.6921081542969	text_02	50	1	Reading_Baseline_main_click	None	von																								MA02	yes	yes	no	2024-08-28_09h31.14.714	EXNAT_3_training	2024.1.0	2024-08-28 09h33.31.851922 +0200	
						1	0	1	0																													#2AB7EF	None	None	None	681.9450855255127	text_02	51	1	Reading_Baseline_main_click	None	Nahrung.																								MA02	yes	yes	no	2024-08-28_09h31.14.714	EXNAT_3_training	2024.1.0	2024-08-28 09h33.31.851922 +0200	
						1	0	1	0																													#2AB7EF	None	None	None	715.2090072631836	text_02	52	1	Reading_Baseline_main_click	None	Außerdem																								MA02	yes	yes	no	2024-08-28_09h31.14.714	EXNAT_3_training	2024.1.0	2024-08-28 09h33.31.851922 +0200	
						1	0	1	0																													#F989A2	None	None	None	583.6620330810547	text_02	53	1	Reading_Baseline_main_click	None	war																								MA02	yes	yes	no	2024-08-28_09h31.14.714	EXNAT_3_training	2024.1.0	2024-08-28 09h33.31.851922 +0200	
						1	0	1	0																													#D292F3	None	None	None	699.3858814239502	text_02	54	1	Reading_Baseline_main_click	None	es																								MA02	yes	yes	no	2024-08-28_09h31.14.714	EXNAT_3_training	2024.1.0	2024-08-28 09h33.31.851922 +0200	
						1	0	1	0																													#F989A2	None	None	None	715.6751155853271	text_02	55	1	Reading_Baseline_main_click	None	weniger																								MA02	yes	yes	no	2024-08-28_09h31.14.714	EXNAT_3_training	2024.1.0	2024-08-28 09h33.31.851922 +0200	
						1	0	1	0																													#88BA3F	None	None	None	898.88596534729	text_02	56	1	Reading_Baseline_main_click	None	gepanzert.																								MA02	yes	yes	no	2024-08-28_09h31.14.714	EXNAT_3_training	2024.1.0	2024-08-28 09h33.31.851922 +0200	
						1	0	1	0																													#F989A2	None	None	None	698.6148357391357	text_02	57	1	Reading_Baseline_main_click	None	Die																								MA02	yes	yes	no	2024-08-28_09h31.14.714	EXNAT_3_training	2024.1.0	2024-08-28 09h33.31.851922 +0200	
						1	0	1	0																													#D292F3	None	None	None	682.4991703033447	text_02	58	1	Reading_Baseline_main_click	None	Forscher																								MA02	yes	yes	no	2024-08-28_09h31.14.714	EXNAT_3_training	2024.1.0	2024-08-28 09h33.31.851922 +0200	
						1	0	1	0																													#D292F3	None	None	None	732.8689098358154	text_02	59	1	Reading_Baseline_main_click	None	"denken,"																								MA02	yes	yes	no	2024-08-28_09h31.14.714	EXNAT_3_training	2024.1.0	2024-08-28 09h33.31.851922 +0200	
						1	0	1	0																													#2AB7EF	None	None	None	665.7099723815918	text_02	60	1	Reading_Baseline_main_click	None	dass																								MA02	yes	yes	no	2024-08-28_09h31.14.714	EXNAT_3_training	2024.1.0	2024-08-28 09h33.31.851922 +0200	
						1	0	1	0																													#88BA3F	None	None	None	632.328987121582	text_02	61	1	Reading_Baseline_main_click	None	Krokodile																								MA02	yes	yes	no	2024-08-28_09h31.14.714	EXNAT_3_training	2024.1.0	2024-08-28 09h33.31.851922 +0200	
						1	0	1	0																													#2AB7EF	None	None	None	716.066837310791	text_02	62	1	Reading_Baseline_main_click	None	in																								MA02	yes	yes	no	2024-08-28_09h31.14.714	EXNAT_3_training	2024.1.0	2024-08-28 09h33.31.851922 +0200	
						1	0	1	0																													#2AB7EF	None	None	None	665.9331321716309	text_02	63	1	Reading_Baseline_main_click	None	der																								MA02	yes	yes	no	2024-08-28_09h31.14.714	EXNAT_3_training	2024.1.0	2024-08-28 09h33.31.851922 +0200	
						1	0	1	0																													#2AB7EF	None	None	None	615.0519847869873	text_02	64	1	Reading_Baseline_main_click	None	Vergangenheit																								MA02	yes	yes	no	2024-08-28_09h31.14.714	EXNAT_3_training	2024.1.0	2024-08-28 09h33.31.851922 +0200	
						1	0	1	0																													#F989A2	None	None	None	748.4490871429443	text_02	65	1	Reading_Baseline_main_click	None	auf																								MA02	yes	yes	no	2024-08-28_09h31.14.714	EXNAT_3_training	2024.1.0	2024-08-28 09h33.31.851922 +0200	
						1	0	1	0																													#D292F3	None	None	None	515.733003616333	text_02	66	1	Reading_Baseline_main_click	None	der																								MA02	yes	yes	no	2024-08-28_09h31.14.714	EXNAT_3_training	2024.1.0	2024-08-28 09h33.31.851922 +0200	
						1	0	1	0																													#F989A2	None	None	None	982.3520183563232	text_02	67	1	Reading_Baseline_main_click	None	Südhalbkugel																								MA02	yes	yes	no	2024-08-28_09h31.14.714	EXNAT_3_training	2024.1.0	2024-08-28 09h33.31.851922 +0200	
						1	0	1	0																													#88BA3F	None	None	None	782.6411724090576	text_02	68	1	Reading_Baseline_main_click	None	"lebten,"																								MA02	yes	yes	no	2024-08-28_09h31.14.714	EXNAT_3_training	2024.1.0	2024-08-28 09h33.31.851922 +0200	
						1	0	1	0																													#88BA3F	None	None	None	749.1090297698975	text_02	69	1	Reading_Baseline_main_click	None	während																								MA02	yes	yes	no	2024-08-28_09h31.14.714	EXNAT_3_training	2024.1.0	2024-08-28 09h33.31.851922 +0200	
						1	0	1	0																													#F989A2	None	None	None	632.5550079345703	text_02	70	1	Reading_Baseline_main_click	None	sich																								MA02	yes	yes	no	2024-08-28_09h31.14.714	EXNAT_3_training	2024.1.0	2024-08-28 09h33.31.851922 +0200	
						1	0	1	0																													#D292F3	None	None	None	748.7578392028809	text_02	71	1	Reading_Baseline_main_click	None	Säugetiere																								MA02	yes	yes	no	2024-08-28_09h31.14.714	EXNAT_3_training	2024.1.0	2024-08-28 09h33.31.851922 +0200	
						1	0	1	0																													#D292F3	None	None	None	699.2061138153076	text_02	72	1	Reading_Baseline_main_click	None	auf																								MA02	yes	yes	no	2024-08-28_09h31.14.714	EXNAT_3_training	2024.1.0	2024-08-28 09h33.31.851922 +0200	
						1	0	1	0																													#88BA3F	None	None	None	683.1791400909424	text_02	73	1	Reading_Baseline_main_click	None	der																								MA02	yes	yes	no	2024-08-28_09h31.14.714	EXNAT_3_training	2024.1.0	2024-08-28 09h33.31.851922 +0200	
						1	0	1	0																													#D292F3	None	None	None	765.6619548797607	text_02	74	1	Reading_Baseline_main_click	None	Nordhalbkugel																								MA02	yes	yes	no	2024-08-28_09h31.14.714	EXNAT_3_training	2024.1.0	2024-08-28 09h33.31.851922 +0200	
						1	0	1	0																													#F989A2	None	None	None	748.6851215362549	text_02	75	1	Reading_Baseline_main_click	None	ausbreiteten.																								MA02	yes	yes	no	2024-08-28_09h31.14.714	EXNAT_3_training	2024.1.0	2024-08-28 09h33.31.851922 +0200	
						1	0	1	0																													#2AB7EF	None	None	None	782.8390598297119	text_02	76	1	Reading_Baseline_main_click	None	Die																								MA02	yes	yes	no	2024-08-28_09h31.14.714	EXNAT_3_training	2024.1.0	2024-08-28 09h33.31.851922 +0200	
						1	0	1	0																													#D292F3	None	None	None	698.6877918243408	text_02	77	1	Reading_Baseline_main_click	None	Forscher																								MA02	yes	yes	no	2024-08-28_09h31.14.714	EXNAT_3_training	2024.1.0	2024-08-28 09h33.31.851922 +0200	
						1	0	1	0																													#2AB7EF	None	None	None	615.9470081329346	text_02	78	1	Reading_Baseline_main_click	None	werden																								MA02	yes	yes	no	2024-08-28_09h31.14.714	EXNAT_3_training	2024.1.0	2024-08-28 09h33.31.851922 +0200	
						1	0	1	0																													#88BA3F	None	None	None	632.6291561126709	text_02	79	1	Reading_Baseline_main_click	None	in																								MA02	yes	yes	no	2024-08-28_09h31.14.714	EXNAT_3_training	2024.1.0	2024-08-28 09h33.31.851922 +0200	
						1	0	1	0																													#F989A2	None	None	None	748.5899925231934	text_02	80	1	Reading_Baseline_main_click	None	Zukunft																								MA02	yes	yes	no	2024-08-28_09h31.14.714	EXNAT_3_training	2024.1.0	2024-08-28 09h33.31.851922 +0200	
						1	0	1	0																													#F989A2	None	None	None	699.2487907409668	text_02	81	1	Reading_Baseline_main_click	None	versuchen																								MA02	yes	yes	no	2024-08-28_09h31.14.714	EXNAT_3_training	2024.1.0	2024-08-28 09h33.31.851922 +0200	
						1	0	1	0																													#D292F3	None	None	None	649.1219997406006	text_02	82	1	Reading_Baseline_main_click	None	mehr																								MA02	yes	yes	no	2024-08-28_09h31.14.714	EXNAT_3_training	2024.1.0	2024-08-28 09h33.31.851922 +0200	
						1	0	1	0																													#2AB7EF	None	None	None	731.8820953369141	text_02	83	1	Reading_Baseline_main_click	None	über																								MA02	yes	yes	no	2024-08-28_09h31.14.714	EXNAT_3_training	2024.1.0	2024-08-28 09h33.31.851922 +0200	
						1	0	1	0																													#88BA3F	None	None	None	649.2910385131836	text_02	84	1	Reading_Baseline_main_click	None	die																								MA02	yes	yes	no	2024-08-28_09h31.14.714	EXNAT_3_training	2024.1.0	2024-08-28 09h33.31.851922 +0200	
						1	0	1	0																													#2AB7EF	None	None	None	715.1517868041992	text_02	85	1	Reading_Baseline_main_click	None	frühe																								MA02	yes	yes	no	2024-08-28_09h31.14.714	EXNAT_3_training	2024.1.0	2024-08-28 09h33.31.851922 +0200	
						1	0	1	0																													#D292F3	None	None	None	816.3177967071533	text_02	86	1	Reading_Baseline_main_click	None	Tierwelt																								MA02	yes	yes	no	2024-08-28_09h31.14.714	EXNAT_3_training	2024.1.0	2024-08-28 09h33.31.851922 +0200	
						1	0	1	0																													#88BA3F	None	None	None	665.3060913085938	text_02	87	1	Reading_Baseline_main_click	None	auf																								MA02	yes	yes	no	2024-08-28_09h31.14.714	EXNAT_3_training	2024.1.0	2024-08-28 09h33.31.851922 +0200	
						1	0	1	0																													#2AB7EF	None	None	None	666.4729118347168	text_02	88	1	Reading_Baseline_main_click	None	der																								MA02	yes	yes	no	2024-08-28_09h31.14.714	EXNAT_3_training	2024.1.0	2024-08-28 09h33.31.851922 +0200	
						1	0	1	0																													#F989A2	None	None	None	897.691011428833	text_02	89	1	Reading_Baseline_main_click	None	Südhalbkugel																								MA02	yes	yes	no	2024-08-28_09h31.14.714	EXNAT_3_training	2024.1.0	2024-08-28 09h33.31.851922 +0200	
						1	0	1	0																													#88BA3F	None	None	None	665.6680107116699	text_02	90	1	Reading_Baseline_main_click	None	zu																								MA02	yes	yes	no	2024-08-28_09h31.14.714	EXNAT_3_training	2024.1.0	2024-08-28 09h33.31.851922 +0200	
						1	0	1	0																													#2AB7EF	None	None	None	598.7999439239502	text_02	91	1	Reading_Baseline_main_click	None	erfahren.																								MA02	yes	yes	no	2024-08-28_09h31.14.714	EXNAT_3_training	2024.1.0	2024-08-28 09h33.31.851922 +0200	
						1	0	1	0																																		text_02			Reading_Baseline_main_click			358.42464900016785	Q1	1	a	False	2	None																	MA02	yes	yes	no	2024-08-28_09h31.14.714	EXNAT_3_training	2024.1.0	2024-08-28 09h33.31.851922 +0200	
						1	0	1	0																																		text_02			Reading_Baseline_main_click			364.37535095214844	Q2	4	d	True	2	None																	MA02	yes	yes	no	2024-08-28_09h31.14.714	EXNAT_3_training	2024.1.0	2024-08-28 09h33.31.851922 +0200	
						1	0	1	0																																		text_02			Reading_Baseline_main_click			367.48251581192017	Q3	2	b	True	2	None																	MA02	yes	yes	no	2024-08-28_09h31.14.714	EXNAT_3_training	2024.1.0	2024-08-28 09h33.31.851922 +0200	
						1	0	1	0																																															371.19453382492065	371.194552898407	371.2334909439087	371.23350381851196	371.2427489757538	371.2427568435669	371.2597858905792										MA02	yes	yes	no	2024-08-28_09h31.14.714	EXNAT_3_training	2024.1.0	2024-08-28 09h33.31.851922 +0200	
						2	0	2	0	371.27608585357666																									371.2600808143616			#2AB7EF	False	correct rejection	None	1237.0738983154297		1	2	0back_single_training	0																#D292F3									MA02	yes	yes	no	2024-08-28_09h31.14.714	EXNAT_3_training	2024.1.0	2024-08-28 09h33.31.851922 +0200	
						2	0	2	0																													#88BA3F	False	correct rejection	None	734.4479560852051		2	2	0back_single_training	0																#D292F3									MA02	yes	yes	no	2024-08-28_09h31.14.714	EXNAT_3_training	2024.1.0	2024-08-28 09h33.31.851922 +0200	
						2	0	2	0																													#2AB7EF	False	correct rejection	None	669.3410873413086		3	2	0back_single_training	0																#D292F3									MA02	yes	yes	no	2024-08-28_09h31.14.714	EXNAT_3_training	2024.1.0	2024-08-28 09h33.31.851922 +0200	
						2	0	2	0																													#F989A2	False	correct rejection	None	750.8120536804199		4	2	0back_single_training	0																#D292F3									MA02	yes	yes	no	2024-08-28_09h31.14.714	EXNAT_3_training	2024.1.0	2024-08-28 09h33.31.851922 +0200	
						2	0	2	0																													#2AB7EF	False	correct rejection	None	615.9441471099854		5	2	0back_single_training	0																#D292F3									MA02	yes	yes	no	2024-08-28_09h31.14.714	EXNAT_3_training	2024.1.0	2024-08-28 09h33.31.851922 +0200	
						2	0	2	0																													#2AB7EF	False	correct rejection	None	584.1841697692871		6	2	0back_single_training	0																#D292F3									MA02	yes	yes	no	2024-08-28_09h31.14.714	EXNAT_3_training	2024.1.0	2024-08-28 09h33.31.851922 +0200	
						2	0	2	0																													#2AB7EF	False	correct rejection	None	736.1469268798828		7	2	0back_single_training	0																#D292F3									MA02	yes	yes	no	2024-08-28_09h31.14.714	EXNAT_3_training	2024.1.0	2024-08-28 09h33.31.851922 +0200	
						2	0	2	0																													#88BA3F	False	correct rejection	None	600.2819538116455		8	2	0back_single_training	0																#D292F3									MA02	yes	yes	no	2024-08-28_09h31.14.714	EXNAT_3_training	2024.1.0	2024-08-28 09h33.31.851922 +0200	
						2	0	2	0																													#88BA3F	False	correct rejection	None	584.1200351715088		9	2	0back_single_training	0																#D292F3									MA02	yes	yes	no	2024-08-28_09h31.14.714	EXNAT_3_training	2024.1.0	2024-08-28 09h33.31.851922 +0200	
						2	0	2	0																													#F989A2	False	correct rejection	None	617.027997970581		10	2	0back_single_training	0																#D292F3									MA02	yes	yes	no	2024-08-28_09h31.14.714	EXNAT_3_training	2024.1.0	2024-08-28 09h33.31.851922 +0200	
						2	0	2	0																													#D292F3	True	hit	517.3211097717285	1500		11	2	0back_single_training	0																#D292F3									MA02	yes	yes	no	2024-08-28_09h31.14.714	EXNAT_3_training	2024.1.0	2024-08-28 09h33.31.851922 +0200	
						2	0	2	0																													#F989A2	False	correct rejection	None	916.5360927581787		12	2	0back_single_training	0																#D292F3									MA02	yes	yes	no	2024-08-28_09h31.14.714	EXNAT_3_training	2024.1.0	2024-08-28 09h33.31.851922 +0200	
						2	0	2	0																													#D292F3	True	hit	684.3698024749756	1500		13	2	0back_single_training	0																#D292F3									MA02	yes	yes	no	2024-08-28_09h31.14.714	EXNAT_3_training	2024.1.0	2024-08-28 09h33.31.851922 +0200	
						2	0	2	0																													#F989A2	False	correct rejection	None	483.4790229797363		14	2	0back_single_training	0																#D292F3									MA02	yes	yes	no	2024-08-28_09h31.14.714	EXNAT_3_training	2024.1.0	2024-08-28 09h33.31.851922 +0200	
						2	0	2	0																													#88BA3F	False	correct rejection	None	534.005880355835		15	2	0back_single_training	0																#D292F3									MA02	yes	yes	no	2024-08-28_09h31.14.714	EXNAT_3_training	2024.1.0	2024-08-28 09h33.31.851922 +0200	
						2	0	2	0																													#D292F3	True	hit	634.2220306396484	1500		16	2	0back_single_training	0																#D292F3									MA02	yes	yes	no	2024-08-28_09h31.14.714	EXNAT_3_training	2024.1.0	2024-08-28 09h33.31.851922 +0200	
						2	0	2	0																													#88BA3F	False	correct rejection	None	433.3369731903076		17	2	0back_single_training	0																#D292F3									MA02	yes	yes	no	2024-08-28_09h31.14.714	EXNAT_3_training	2024.1.0	2024-08-28 09h33.31.851922 +0200	
						2	0	2	0																													#F989A2	False	correct rejection	None	584.1259956359863		18	2	0back_single_training	0																#D292F3									MA02	yes	yes	no	2024-08-28_09h31.14.714	EXNAT_3_training	2024.1.0	2024-08-28 09h33.31.851922 +0200	
						2	0	2	0																													#D292F3	True	hit	550.7349967956543	1500		19	2	0back_single_training	0																#D292F3									MA02	yes	yes	no	2024-08-28_09h31.14.714	EXNAT_3_training	2024.1.0	2024-08-28 09h33.31.851922 +0200	
						2	0	2	0																													#D292F3	True	hit	500.12683868408203	1500		20	2	0back_single_training	0																#D292F3									MA02	yes	yes	no	2024-08-28_09h31.14.714	EXNAT_3_training	2024.1.0	2024-08-28 09h33.31.851922 +0200	
						2	0	2	0																											481.0391788482666	481.0391879081726	#2AB7EF	False	correct rejection	None	1385.3931427001953	text_03	1	3	0back_dual_main_click	0	Orang-Utans															#88BA3F									MA02	yes	yes	no	2024-08-28_09h31.14.714	EXNAT_3_training	2024.1.0	2024-08-28 09h33.31.851922 +0200	
						2	0	2	0																													#2AB7EF	False	correct rejection	None	912.2509956359863	text_03	2	3	0back_dual_main_click	0	bauen															#88BA3F									MA02	yes	yes	no	2024-08-28_09h31.14.714	EXNAT_3_training	2024.1.0	2024-08-28 09h33.31.851922 +0200	
						2	0	2	0																													#F989A2	False	correct rejection	None	932.0521354675293	text_03	3	3	0back_dual_main_click	0	sich															#88BA3F									MA02	yes	yes	no	2024-08-28_09h31.14.714	EXNAT_3_training	2024.1.0	2024-08-28 09h33.31.851922 +0200	
						2	0	2	0																													#88BA3F	True	hit	667.1309471130371	1502.025842666626	text_03	4	3	0back_dual_main_click	0	jede															#88BA3F									MA02	yes	yes	no	2024-08-28_09h31.14.714	EXNAT_3_training	2024.1.0	2024-08-28 09h33.31.851922 +0200	
						2	0	2	0																													#2AB7EF	False	correct rejection	None	849.1740226745605	text_03	5	3	0back_dual_main_click	0	Nacht															#88BA3F									MA02	yes	yes	no	2024-08-28_09h31.14.714	EXNAT_3_training	2024.1.0	2024-08-28 09h33.31.851922 +0200	
						2	0	2	0																													#F989A2	False	correct rejection	None	1015.1569843292236	text_03	6	3	0back_dual_main_click	0	gemütliche															#88BA3F									MA02	yes	yes	no	2024-08-28_09h31.14.714	EXNAT_3_training	2024.1.0	2024-08-28 09h33.31.851922 +0200	
						2	0	2	0																													#F989A2	False	correct rejection	None	999.6371269226074	text_03	7	3	0back_dual_main_click	0	Schlafnester															#88BA3F									MA02	yes	yes	no	2024-08-28_09h31.14.714	EXNAT_3_training	2024.1.0	2024-08-28 09h33.31.851922 +0200	
						2	0	2	0																													#F989A2	False	correct rejection	None	1032.4668884277344	text_03	8	3	0back_dual_main_click	0	hoch															#88BA3F									MA02	yes	yes	no	2024-08-28_09h31.14.714	EXNAT_3_training	2024.1.0	2024-08-28 09h33.31.851922 +0200	
						2	0	2	0																													#D292F3	False	correct rejection	None	866.8820858001709	text_03	9	3	0back_dual_main_click	0	in															#88BA3F									MA02	yes	yes	no	2024-08-28_09h31.14.714	EXNAT_3_training	2024.1.0	2024-08-28 09h33.31.851922 +0200	
						2	0	2	0																													#F989A2	False	correct rejection	None	749.5288848876953	text_03	10	3	0back_dual_main_click	0	den															#88BA3F									MA02	yes	yes	no	2024-08-28_09h31.14.714	EXNAT_3_training	2024.1.0	2024-08-28 09h33.31.851922 +0200	
						2	0	2	0																													#F989A2	False	correct rejection	None	748.1529712677002	text_03	11	3	0back_dual_main_click	0	Bäumen.															#88BA3F									MA02	yes	yes	no	2024-08-28_09h31.14.714	EXNAT_3_training	2024.1.0	2024-08-28 09h33.31.851922 +0200	
						2	0	2	0																													#D292F3	False	correct rejection	None	832.4718475341797	text_03	12	3	0back_dual_main_click	0	Diese															#88BA3F									MA02	yes	yes	no	2024-08-28_09h31.14.714	EXNAT_3_training	2024.1.0	2024-08-28 09h33.31.851922 +0200	
						2	0	2	0																													#D292F3	False	correct rejection	None	899.6109962463379	text_03	13	3	0back_dual_main_click	0	Nester															#88BA3F									MA02	yes	yes	no	2024-08-28_09h31.14.714	EXNAT_3_training	2024.1.0	2024-08-28 09h33.31.851922 +0200	
						2	0	2	0																													#2AB7EF	False	correct rejection	None	798.8889217376709	text_03	14	3	0back_dual_main_click	0	bestehen															#88BA3F									MA02	yes	yes	no	2024-08-28_09h31.14.714	EXNAT_3_training	2024.1.0	2024-08-28 09h33.31.851922 +0200	
						2	0	2	0																													#88BA3F	True	hit	683.1130981445312	1217.4742221832275	text_03	15	3	0back_dual_main_click	0	aus															#88BA3F									MA02	yes	yes	no	2024-08-28_09h31.14.714	EXNAT_3_training	2024.1.0	2024-08-28 09h33.31.851922 +0200	
						2	0	2	0																													#2AB7EF	False	correct rejection	None	982.4440479278564	text_03	16	3	0back_dual_main_click	0	Ästen															#88BA3F									MA02	yes	yes	no	2024-08-28_09h31.14.714	EXNAT_3_training	2024.1.0	2024-08-28 09h33.31.851922 +0200	
						2	0	2	0																													#2AB7EF	False	correct rejection	None	899.7437953948975	text_03	17	3	0back_dual_main_click	0	und															#88BA3F									MA02	yes	yes	no	2024-08-28_09h31.14.714	EXNAT_3_training	2024.1.0	2024-08-28 09h33.31.851922 +0200	
						2	0	2	0																													#F989A2	False	correct rejection	None	615.2849197387695	text_03	18	3	0back_dual_main_click	0	Blättern															#88BA3F									MA02	yes	yes	no	2024-08-28_09h31.14.714	EXNAT_3_training	2024.1.0	2024-08-28 09h33.31.851922 +0200	
						2	0	2	0																													#D292F3	False	correct rejection	None	633.0459117889404	text_03	19	3	0back_dual_main_click	0	und															#88BA3F									MA02	yes	yes	no	2024-08-28_09h31.14.714	EXNAT_3_training	2024.1.0	2024-08-28 09h33.31.851922 +0200	
						2	0	2	0																													#F989A2	False	correct rejection	None	698.4241008758545	text_03	20	3	0back_dual_main_click	0	bieten															#88BA3F									MA02	yes	yes	no	2024-08-28_09h31.14.714	EXNAT_3_training	2024.1.0	2024-08-28 09h33.31.851922 +0200	
						2	0	2	0																													#2AB7EF	False	correct rejection	None	633.0759525299072	text_03	21	3	0back_dual_main_click	0	den															#88BA3F									MA02	yes	yes	no	2024-08-28_09h31.14.714	EXNAT_3_training	2024.1.0	2024-08-28 09h33.31.851922 +0200	
						2	0	2	0																													#F989A2	False	correct rejection	None	765.0339603424072	text_03	22	3	0back_dual_main_click	0	Affen															#88BA3F									MA02	yes	yes	no	2024-08-28_09h31.14.714	EXNAT_3_training	2024.1.0	2024-08-28 09h33.31.851922 +0200	
						2	0	2	0																													#D292F3	False	correct rejection	None	782.649040222168	text_03	23	3	0back_dual_main_click	0	Komfort															#88BA3F									MA02	yes	yes	no	2024-08-28_09h31.14.714	EXNAT_3_training	2024.1.0	2024-08-28 09h33.31.851922 +0200	
						2	0	2	0																													#D292F3	False	correct rejection	None	714.5581245422363	text_03	24	3	0back_dual_main_click	0	und															#88BA3F									MA02	yes	yes	no	2024-08-28_09h31.14.714	EXNAT_3_training	2024.1.0	2024-08-28 09h33.31.851922 +0200	
						2	0	2	0																													#88BA3F	True	hit	615.0989532470703	1149.4700908660889	text_03	25	3	0back_dual_main_click	0	Schutz.															#88BA3F									MA02	yes	yes	no	2024-08-28_09h31.14.714	EXNAT_3_training	2024.1.0	2024-08-28 09h33.31.851922 +0200	
						2	0	2	0																													#D292F3	False	correct rejection	None	850.6100177764893	text_03	26	3	0back_dual_main_click	0	Forscher															#88BA3F									MA02	yes	yes	no	2024-08-28_09h31.14.714	EXNAT_3_training	2024.1.0	2024-08-28 09h33.31.851922 +0200	
						2	0	2	0																													#D292F3	False	correct rejection	None	815.2971267700195	text_03	27	3	0back_dual_main_click	0	haben															#88BA3F									MA02	yes	yes	no	2024-08-28_09h31.14.714	EXNAT_3_training	2024.1.0	2024-08-28 09h33.31.851922 +0200	
						2	0	2	0																													#88BA3F	True	hit	631.5140724182129	1199.2900371551514	text_03	28	3	0back_dual_main_click	0	"entdeckt,"															#88BA3F									MA02	yes	yes	no	2024-08-28_09h31.14.714	EXNAT_3_training	2024.1.0	2024-08-28 09h33.31.851922 +0200	
						2	0	2	0																													#D292F3	False	correct rejection	None	666.0230159759521	text_03	29	3	0back_dual_main_click	0	dass															#88BA3F									MA02	yes	yes	no	2024-08-28_09h31.14.714	EXNAT_3_training	2024.1.0	2024-08-28 09h33.31.851922 +0200	
						2	0	2	0																													#F989A2	False	correct rejection	None	782.5469970703125	text_03	30	3	0back_dual_main_click	0	Orang-Utans															#88BA3F									MA02	yes	yes	no	2024-08-28_09h31.14.714	EXNAT_3_training	2024.1.0	2024-08-28 09h33.31.851922 +0200	
						2	0	2	0																													#2AB7EF	False	correct rejection	None	716.0708904266357	text_03	31	3	0back_dual_main_click	0	sehr															#88BA3F									MA02	yes	yes	no	2024-08-28_09h31.14.714	EXNAT_3_training	2024.1.0	2024-08-28 09h33.31.851922 +0200	
						2	0	2	0																													#F989A2	False	correct rejection	None	615.9601211547852	text_03	32	3	0back_dual_main_click	0	geschickt															#88BA3F									MA02	yes	yes	no	2024-08-28_09h31.14.714	EXNAT_3_training	2024.1.0	2024-08-28 09h33.31.851922 +0200	
						2	0	2	0																													#D292F3	False	correct rejection	None	765.1948928833008	text_03	33	3	0back_dual_main_click	0	vorgehen:															#88BA3F									MA02	yes	yes	no	2024-08-28_09h31.14.714	EXNAT_3_training	2024.1.0	2024-08-28 09h33.31.851922 +0200	
						2	0	2	0																													#88BA3F	True	hit	598.8898277282715	1133.246898651123	text_03	34	3	0back_dual_main_click	0	Sie															#88BA3F									MA02	yes	yes	no	2024-08-28_09h31.14.714	EXNAT_3_training	2024.1.0	2024-08-28 09h33.31.851922 +0200	
						2	0	2	0																													#D292F3	False	correct rejection	None	681.96702003479	text_03	35	3	0back_dual_main_click	0	wählen															#88BA3F									MA02	yes	yes	no	2024-08-28_09h31.14.714	EXNAT_3_training	2024.1.0	2024-08-28 09h33.31.851922 +0200	
						2	0	2	0																													#88BA3F	True	hit	615.2181625366211	1200.1850605010986	text_03	36	3	0back_dual_main_click	0	stabile															#88BA3F									MA02	yes	yes	no	2024-08-28_09h31.14.714	EXNAT_3_training	2024.1.0	2024-08-28 09h33.31.851922 +0200	
						2	0	2	0																													#2AB7EF	False	correct rejection	None	782.6781272888184	text_03	37	3	0back_dual_main_click	0	Äste															#88BA3F									MA02	yes	yes	no	2024-08-28_09h31.14.714	EXNAT_3_training	2024.1.0	2024-08-28 09h33.31.851922 +0200	
						2	0	2	0																													#2AB7EF	False	correct rejection	None	665.9469604492188	text_03	38	3	0back_dual_main_click	0	aus															#88BA3F									MA02	yes	yes	no	2024-08-28_09h31.14.714	EXNAT_3_training	2024.1.0	2024-08-28 09h33.31.851922 +0200	
						2	0	2	0																													#88BA3F	True	hit	615.8962249755859	1183.670997619629	text_03	39	3	0back_dual_main_click	0	und															#88BA3F									MA02	yes	yes	no	2024-08-28_09h31.14.714	EXNAT_3_training	2024.1.0	2024-08-28 09h33.31.851922 +0200	
						2	0	2	0																													#D292F3	False	correct rejection	None	615.7169342041016	text_03	40	3	0back_dual_main_click	0	biegen															#88BA3F									MA02	yes	yes	no	2024-08-28_09h31.14.714	EXNAT_3_training	2024.1.0	2024-08-28 09h33.31.851922 +0200	
						2	0	2	0																													#F989A2	False	correct rejection	None	664.1020774841309	text_03	41	3	0back_dual_main_click	0	"diese,"															#88BA3F									MA02	yes	yes	no	2024-08-28_09h31.14.714	EXNAT_3_training	2024.1.0	2024-08-28 09h33.31.851922 +0200	
						2	0	2	0																													#F989A2	False	correct rejection	None	648.8990783691406	text_03	42	3	0back_dual_main_click	0	ohne															#88BA3F									MA02	yes	yes	no	2024-08-28_09h31.14.714	EXNAT_3_training	2024.1.0	2024-08-28 09h33.31.851922 +0200	
						2	0	2	0																													#2AB7EF	False	correct rejection	None	682.6882362365723	text_03	43	3	0back_dual_main_click	0	sie															#88BA3F									MA02	yes	yes	no	2024-08-28_09h31.14.714	EXNAT_3_training	2024.1.0	2024-08-28 09h33.31.851922 +0200	
						2	0	2	0																													#2AB7EF	False	correct rejection	None	650.7828235626221	text_03	44	3	0back_dual_main_click	0	ganz															#88BA3F									MA02	yes	yes	no	2024-08-28_09h31.14.714	EXNAT_3_training	2024.1.0	2024-08-28 09h33.31.851922 +0200	
						2	0	2	0																													#F989A2	False	correct rejection	None	615.7288551330566	text_03	45	3	0back_dual_main_click	0	zu															#88BA3F									MA02	yes	yes	no	2024-08-28_09h31.14.714	EXNAT_3_training	2024.1.0	2024-08-28 09h33.31.851922 +0200	
						2	0	2	0																													#2AB7EF	False	correct rejection	None	649.029016494751	text_03	46	3	0back_dual_main_click	0	brechen.															#88BA3F									MA02	yes	yes	no	2024-08-28_09h31.14.714	EXNAT_3_training	2024.1.0	2024-08-28 09h33.31.851922 +0200	
						2	0	2	0																													#D292F3	False	correct rejection	None	665.8570766448975	text_03	47	3	0back_dual_main_click	0	So															#88BA3F									MA02	yes	yes	no	2024-08-28_09h31.14.714	EXNAT_3_training	2024.1.0	2024-08-28 09h33.31.851922 +0200	
						2	0	2	0																													#F989A2	False	correct rejection	None	632.4219703674316	text_03	48	3	0back_dual_main_click	0	entsteht															#88BA3F									MA02	yes	yes	no	2024-08-28_09h31.14.714	EXNAT_3_training	2024.1.0	2024-08-28 09h33.31.851922 +0200	
						2	0	2	0																													#D292F3	False	correct rejection	None	666.0130023956299	text_03	49	3	0back_dual_main_click	0	eine															#88BA3F									MA02	yes	yes	no	2024-08-28_09h31.14.714	EXNAT_3_training	2024.1.0	2024-08-28 09h33.31.851922 +0200	
						2	0	2	0																													#F989A2	False	correct rejection	None	665.816068649292	text_03	50	3	0back_dual_main_click	0	robuste															#88BA3F									MA02	yes	yes	no	2024-08-28_09h31.14.714	EXNAT_3_training	2024.1.0	2024-08-28 09h33.31.851922 +0200	
						2	0	2	0																													#2AB7EF	False	correct rejection	None	747.9019165039062	text_03	51	3	0back_dual_main_click	0	Grundstruktur.															#88BA3F									MA02	yes	yes	no	2024-08-28_09h31.14.714	EXNAT_3_training	2024.1.0	2024-08-28 09h33.31.851922 +0200	
						2	0	2	0																													#F989A2	False	correct rejection	None	632.5979232788086	text_03	52	3	0back_dual_main_click	0	Die															#88BA3F									MA02	yes	yes	no	2024-08-28_09h31.14.714	EXNAT_3_training	2024.1.0	2024-08-28 09h33.31.851922 +0200	
						2	0	2	0																													#88BA3F	True	hit	631.8318843841553	1165.7397747039795	text_03	53	3	0back_dual_main_click	0	Polsterung															#88BA3F									MA02	yes	yes	no	2024-08-28_09h31.14.714	EXNAT_3_training	2024.1.0	2024-08-28 09h33.31.851922 +0200	
						2	0	2	0																													#D292F3	False	correct rejection	None	733.1929206848145	text_03	54	3	0back_dual_main_click	0	der															#88BA3F									MA02	yes	yes	no	2024-08-28_09h31.14.714	EXNAT_3_training	2024.1.0	2024-08-28 09h33.31.851922 +0200	
						2	0	2	0																													#88BA3F	True	hit	597.4869728088379	1131.8628787994385	text_03	55	3	0back_dual_main_click	0	Nester															#88BA3F									MA02	yes	yes	no	2024-08-28_09h31.14.714	EXNAT_3_training	2024.1.0	2024-08-28 09h33.31.851922 +0200	
						2	0	2	0																													#F989A2	False	correct rejection	None	682.5058460235596	text_03	56	3	0back_dual_main_click	0	besteht															#88BA3F									MA02	yes	yes	no	2024-08-28_09h31.14.714	EXNAT_3_training	2024.1.0	2024-08-28 09h33.31.851922 +0200	
						2	0	2	0																													#2AB7EF	False	correct rejection	None	634.2909336090088	text_03	57	3	0back_dual_main_click	0	aus															#88BA3F									MA02	yes	yes	no	2024-08-28_09h31.14.714	EXNAT_3_training	2024.1.0	2024-08-28 09h33.31.851922 +0200	
						2	0	2	0																													#F989A2	False	correct rejection	None	598.9139080047607	text_03	58	3	0back_dual_main_click	0	dünneren															#88BA3F									MA02	yes	yes	no	2024-08-28_09h31.14.714	EXNAT_3_training	2024.1.0	2024-08-28 09h33.31.851922 +0200	
						2	0	2	0																													#88BA3F	True	hit	648.6520767211914	1216.4249420166016	text_03	59	3	0back_dual_main_click	0	Ästen															#88BA3F									MA02	yes	yes	no	2024-08-28_09h31.14.714	EXNAT_3_training	2024.1.0	2024-08-28 09h33.31.851922 +0200	
						2	0	2	0																													#2AB7EF	False	correct rejection	None	615.8759593963623	text_03	60	3	0back_dual_main_click	0	und															#88BA3F									MA02	yes	yes	no	2024-08-28_09h31.14.714	EXNAT_3_training	2024.1.0	2024-08-28 09h33.31.851922 +0200	
						2	0	2	0																													#2AB7EF	False	correct rejection	None	599.0710258483887	text_03	61	3	0back_dual_main_click	0	macht															#88BA3F									MA02	yes	yes	no	2024-08-28_09h31.14.714	EXNAT_3_training	2024.1.0	2024-08-28 09h33.31.851922 +0200	
						2	0	2	0																													#88BA3F	True	hit	632.5869560241699	1183.6531162261963	text_03	62	3	0back_dual_main_click	0	das															#88BA3F									MA02	yes	yes	no	2024-08-28_09h31.14.714	EXNAT_3_training	2024.1.0	2024-08-28 09h33.31.851922 +0200	
						2	0	2	0																													#D292F3	False	correct rejection	None	632.5569152832031	text_03	63	3	0back_dual_main_click	0	Nest															#88BA3F									MA02	yes	yes	no	2024-08-28_09h31.14.714	EXNAT_3_training	2024.1.0	2024-08-28 09h33.31.851922 +0200	
						2	0	2	0																													#F989A2	False	correct rejection	None	615.6949996948242	text_03	64	3	0back_dual_main_click	0	besonders															#88BA3F									MA02	yes	yes	no	2024-08-28_09h31.14.714	EXNAT_3_training	2024.1.0	2024-08-28 09h33.31.851922 +0200	
						2	0	2	0																													#D292F3	False	correct rejection	None	631.7360401153564	text_03	65	3	0back_dual_main_click	0	bequem.															#88BA3F									MA02	yes	yes	no	2024-08-28_09h31.14.714	EXNAT_3_training	2024.1.0	2024-08-28 09h33.31.851922 +0200	
						2	0	2	0																													#F989A2	False	correct rejection	None	599.013090133667	text_03	66	3	0back_dual_main_click	0	Diese															#88BA3F									MA02	yes	yes	no	2024-08-28_09h31.14.714	EXNAT_3_training	2024.1.0	2024-08-28 09h33.31.851922 +0200	
						2	0	2	0																													#D292F3	False	correct rejection	None	731.9478988647461	text_03	67	3	0back_dual_main_click	0	Bauweise															#88BA3F									MA02	yes	yes	no	2024-08-28_09h31.14.714	EXNAT_3_training	2024.1.0	2024-08-28 09h33.31.851922 +0200	
						2	0	2	0																													#F989A2	False	correct rejection	None	648.8628387451172	text_03	68	3	0back_dual_main_click	0	schützt															#88BA3F									MA02	yes	yes	no	2024-08-28_09h31.14.714	EXNAT_3_training	2024.1.0	2024-08-28 09h33.31.851922 +0200	
						2	0	2	0																													#D292F3	False	correct rejection	None	632.559061050415	text_03	69	3	0back_dual_main_click	0	die															#88BA3F									MA02	yes	yes	no	2024-08-28_09h31.14.714	EXNAT_3_training	2024.1.0	2024-08-28 09h33.31.851922 +0200	
						2	0	2	0																													#88BA3F	True	hit	615.6558990478516	1233.5329055786133	text_03	70	3	0back_dual_main_click	0	Orang-Utans															#88BA3F									MA02	yes	yes	no	2024-08-28_09h31.14.714	EXNAT_3_training	2024.1.0	2024-08-28 09h33.31.851922 +0200	
						2	0	2	0																													#F989A2	False	correct rejection	None	632.4329376220703	text_03	71	3	0back_dual_main_click	0	nicht															#88BA3F									MA02	yes	yes	no	2024-08-28_09h31.14.714	EXNAT_3_training	2024.1.0	2024-08-28 09h33.31.851922 +0200	
						2	0	2	0																													#2AB7EF	False	correct rejection	None	666.0008430480957	text_03	72	3	0back_dual_main_click	0	nur															#88BA3F									MA02	yes	yes	no	2024-08-28_09h31.14.714	EXNAT_3_training	2024.1.0	2024-08-28 09h33.31.851922 +0200	
						2	0	2	0																													#2AB7EF	False	correct rejection	None	615.6771183013916	text_03	73	3	0back_dual_main_click	0	vor															#88BA3F									MA02	yes	yes	no	2024-08-28_09h31.14.714	EXNAT_3_training	2024.1.0	2024-08-28 09h33.31.851922 +0200	
						2	0	2	0																													#D292F3	False	correct rejection	None	649.0590572357178	text_03	74	3	0back_dual_main_click	0	dem															#88BA3F									MA02	yes	yes	no	2024-08-28_09h31.14.714	EXNAT_3_training	2024.1.0	2024-08-28 09h33.31.851922 +0200	
						2	0	2	0																													#2AB7EF	False	correct rejection	None	814.9189949035645	text_03	75	3	0back_dual_main_click	0	"Herunterfallen,"															#88BA3F									MA02	yes	yes	no	2024-08-28_09h31.14.714	EXNAT_3_training	2024.1.0	2024-08-28 09h33.31.851922 +0200	
						2	0	2	0																													#F989A2	False	correct rejection	None	615.562915802002	text_03	76	3	0back_dual_main_click	0	sondern															#88BA3F									MA02	yes	yes	no	2024-08-28_09h31.14.714	EXNAT_3_training	2024.1.0	2024-08-28 09h33.31.851922 +0200	
						2	0	2	0																													#2AB7EF	False	correct rejection	None	615.8201694488525	text_03	77	3	0back_dual_main_click	0	auch															#88BA3F									MA02	yes	yes	no	2024-08-28_09h31.14.714	EXNAT_3_training	2024.1.0	2024-08-28 09h33.31.851922 +0200	
						2	0	2	0																													#D292F3	False	correct rejection	None	614.0091419219971	text_03	78	3	0back_dual_main_click	0	vor															#88BA3F									MA02	yes	yes	no	2024-08-28_09h31.14.714	EXNAT_3_training	2024.1.0	2024-08-28 09h33.31.851922 +0200	
						2	0	2	0																													#D292F3	False	correct rejection	None	632.037878036499	text_03	79	3	0back_dual_main_click	0	Feinden															#88BA3F									MA02	yes	yes	no	2024-08-28_09h31.14.714	EXNAT_3_training	2024.1.0	2024-08-28 09h33.31.851922 +0200	
						2	0	2	0																													#F989A2	False	correct rejection	None	665.9729480743408	text_03	80	3	0back_dual_main_click	0	und															#88BA3F									MA02	yes	yes	no	2024-08-28_09h31.14.714	EXNAT_3_training	2024.1.0	2024-08-28 09h33.31.851922 +0200	
						2	0	2	0																													#2AB7EF	False	correct rejection	None	683.8181018829346	text_03	81	3	0back_dual_main_click	0	Parasiten.															#88BA3F									MA02	yes	yes	no	2024-08-28_09h31.14.714	EXNAT_3_training	2024.1.0	2024-08-28 09h33.31.851922 +0200	
						2	0	2	0																													#2AB7EF	False	correct rejection	None	699.3610858917236	text_03	82	3	0back_dual_main_click	0	So															#88BA3F									MA02	yes	yes	no	2024-08-28_09h31.14.714	EXNAT_3_training	2024.1.0	2024-08-28 09h33.31.851922 +0200	
						2	0	2	0																													#2AB7EF	False	correct rejection	None	648.3769416809082	text_03	83	3	0back_dual_main_click	0	schlafen															#88BA3F									MA02	yes	yes	no	2024-08-28_09h31.14.714	EXNAT_3_training	2024.1.0	2024-08-28 09h33.31.851922 +0200	
						2	0	2	0																													#2AB7EF	False	correct rejection	None	599.1220474243164	text_03	84	3	0back_dual_main_click	0	die															#88BA3F									MA02	yes	yes	no	2024-08-28_09h31.14.714	EXNAT_3_training	2024.1.0	2024-08-28 09h33.31.851922 +0200	
						2	0	2	0																													#D292F3	False	correct rejection	None	715.623140335083	text_03	85	3	0back_dual_main_click	0	Primaten															#88BA3F									MA02	yes	yes	no	2024-08-28_09h31.14.714	EXNAT_3_training	2024.1.0	2024-08-28 09h33.31.851922 +0200	
						2	0	2	0																													#D292F3	False	correct rejection	None	648.963212966919	text_03	86	3	0back_dual_main_click	0	sicher															#88BA3F									MA02	yes	yes	no	2024-08-28_09h31.14.714	EXNAT_3_training	2024.1.0	2024-08-28 09h33.31.851922 +0200	
						2	0	2	0																													#D292F3	False	correct rejection	None	715.7809734344482	text_03	87	3	0back_dual_main_click	0	und															#88BA3F									MA02	yes	yes	no	2024-08-28_09h31.14.714	EXNAT_3_training	2024.1.0	2024-08-28 09h33.31.851922 +0200	
						2	0	2	0																													#88BA3F	True	hit	682.1238994598389	1249.8998641967773	text_03	88	3	0back_dual_main_click	0	komfortabel															#88BA3F									MA02	yes	yes	no	2024-08-28_09h31.14.714	EXNAT_3_training	2024.1.0	2024-08-28 09h33.31.851922 +0200	
						2	0	2	0																													#88BA3F	True	hit	682.448148727417	1250.2241134643555	text_03	89	3	0back_dual_main_click	0	in															#88BA3F									MA02	yes	yes	no	2024-08-28_09h31.14.714	EXNAT_3_training	2024.1.0	2024-08-28 09h33.31.851922 +0200	
						2	0	2	0																													#88BA3F	True	hit	582.0930004119873	1166.5771007537842	text_03	90	3	0back_dual_main_click	0	ihren															#88BA3F									MA02	yes	yes	no	2024-08-28_09h31.14.714	EXNAT_3_training	2024.1.0	2024-08-28 09h33.31.851922 +0200	
						2	0	2	0																													#F989A2	False	correct rejection	None	681.8079948425293	text_03	91	3	0back_dual_main_click	0	Nestern.															#88BA3F									MA02	yes	yes	no	2024-08-28_09h31.14.714	EXNAT_3_training	2024.1.0	2024-08-28 09h33.31.851922 +0200	
						2	0	2	0																																		text_03			0back_dual_main_click			580.5115718841553	Q1	1	a	True	4	0																	MA02	yes	yes	no	2024-08-28_09h31.14.714	EXNAT_3_training	2024.1.0	2024-08-28 09h33.31.851922 +0200	
						2	0	2	0																																		text_03			0back_dual_main_click			584.6887049674988	Q2	1	a	True	4	0																	MA02	yes	yes	no	2024-08-28_09h31.14.714	EXNAT_3_training	2024.1.0	2024-08-28 09h33.31.851922 +0200	
						2	0	2	0																																		text_03			0back_dual_main_click			588.6616249084473	Q3	2	b	True	4	0																	MA02	yes	yes	no	2024-08-28_09h31.14.714	EXNAT_3_training	2024.1.0	2024-08-28 09h33.31.851922 +0200	
						2	0	2	0																																															591.1727449893951	591.1727638244629	591.2119629383087	591.2119748592377	591.2212069034576	591.2212138175964	591.2379620075226										MA02	yes	yes	no	2024-08-28_09h31.14.714	EXNAT_3_training	2024.1.0	2024-08-28 09h33.31.851922 +0200	
						3	0	3	0	591.2545738220215																									591.2382547855377			#88BA3F	False	correct rejection	None	1500		1	4	1back_single_training1	1																									MA02	yes	yes	no	2024-08-28_09h31.14.714	EXNAT_3_training	2024.1.0	2024-08-28 09h33.31.851922 +0200	
						3	0	3	0																													#D292F3	False	correct rejection	None	49.7889518737793		2	4	1back_single_training1	1																									MA02	yes	yes	no	2024-08-28_09h31.14.714	EXNAT_3_training	2024.1.0	2024-08-28 09h33.31.851922 +0200	
						3	0	3	0																													#D292F3	True	hit	567.6829814910889	1400.7458686828613		3	4	1back_single_training1	1																									MA02	yes	yes	no	2024-08-28_09h31.14.714	EXNAT_3_training	2024.1.0	2024-08-28 09h33.31.851922 +0200	
						3	0	3	0																													#2AB7EF	False	correct rejection	None	852.5390625		4	4	1back_single_training1	1																									MA02	yes	yes	no	2024-08-28_09h31.14.714	EXNAT_3_training	2024.1.0	2024-08-28 09h33.31.851922 +0200	
						3	0	3	0																													#2AB7EF	True	hit	433.8362216949463	1051.6941547393799		5	4	1back_single_training1	1																									MA02	yes	yes	no	2024-08-28_09h31.14.714	EXNAT_3_training	2024.1.0	2024-08-28 09h33.31.851922 +0200	
						3	0	3	0																													#D292F3	False	correct rejection	None	517.3490047454834		6	4	1back_single_training1	1																									MA02	yes	yes	no	2024-08-28_09h31.14.714	EXNAT_3_training	2024.1.0	2024-08-28 09h33.31.851922 +0200	
						3	0	3	0																													#88BA3F	False	correct rejection	None	801.7311096191406		7	4	1back_single_training1	1																									MA02	yes	yes	no	2024-08-28_09h31.14.714	EXNAT_3_training	2024.1.0	2024-08-28 09h33.31.851922 +0200	
						3	0	3	0																													#F989A2	False	correct rejection	None	599.1950035095215		8	4	1back_single_training1	1																									MA02	yes	yes	no	2024-08-28_09h31.14.714	EXNAT_3_training	2024.1.0	2024-08-28 09h33.31.851922 +0200	
						3	0	3	0																													#88BA3F	False	correct rejection	None	717.771053314209		9	4	1back_single_training1	1																									MA02	yes	yes	no	2024-08-28_09h31.14.714	EXNAT_3_training	2024.1.0	2024-08-28 09h33.31.851922 +0200	
						3	0	3	0																													#2AB7EF	False	correct rejection	None	585.8919620513916		10	4	1back_single_training1	1																									MA02	yes	yes	no	2024-08-28_09h31.14.714	EXNAT_3_training	2024.1.0	2024-08-28 09h33.31.851922 +0200	
						3	0	3	0																													#F989A2	False	correct rejection	None	600.862979888916		11	4	1back_single_training1	1																									MA02	yes	yes	no	2024-08-28_09h31.14.714	EXNAT_3_training	2024.1.0	2024-08-28 09h33.31.851922 +0200	
						3	0	3	0																													#F989A2	True	hit	417.1750545501709	1118.556022644043		12	4	1back_single_training1	1																									MA02	yes	yes	no	2024-08-28_09h31.14.714	EXNAT_3_training	2024.1.0	2024-08-28 09h33.31.851922 +0200	
						3	0	3	0																													#88BA3F	False	correct rejection	None	534.0709686279297		13	4	1back_single_training1	1																									MA02	yes	yes	no	2024-08-28_09h31.14.714	EXNAT_3_training	2024.1.0	2024-08-28 09h33.31.851922 +0200	
						3	0	3	0																													#88BA3F	True	hit	467.29397773742676	1101.8600463867188		14	4	1back_single_training1	1																									MA02	yes	yes	no	2024-08-28_09h31.14.714	EXNAT_3_training	2024.1.0	2024-08-28 09h33.31.851922 +0200	
						3	0	3	0																													#2AB7EF	False	correct rejection	None	500.6868839263916		15	4	1back_single_training1	1																									MA02	yes	yes	no	2024-08-28_09h31.14.714	EXNAT_3_training	2024.1.0	2024-08-28 09h33.31.851922 +0200	
						3	0	3	0																													#F989A2	False	correct rejection	None	550.7888793945312		16	4	1back_single_training1	1																									MA02	yes	yes	no	2024-08-28_09h31.14.714	EXNAT_3_training	2024.1.0	2024-08-28 09h33.31.851922 +0200	
						3	0	3	0																													#D292F3	False	correct rejection	None	517.0869827270508		17	4	1back_single_training1	1																									MA02	yes	yes	no	2024-08-28_09h31.14.714	EXNAT_3_training	2024.1.0	2024-08-28 09h33.31.851922 +0200	
						3	0	3	0																													#2AB7EF	False	correct rejection	None	534.1000556945801		18	4	1back_single_training1	1																									MA02	yes	yes	no	2024-08-28_09h31.14.714	EXNAT_3_training	2024.1.0	2024-08-28 09h33.31.851922 +0200	
						3	0	3	0																													#D292F3	False	correct rejection	None	686.0971450805664		19	4	1back_single_training1	1																									MA02	yes	yes	no	2024-08-28_09h31.14.714	EXNAT_3_training	2024.1.0	2024-08-28 09h33.31.851922 +0200	
						3	0	3	0																													#D292F3	True	hit	467.2229290008545	1185.2798461914062		20	4	1back_single_training1	1																									MA02	yes	yes	no	2024-08-28_09h31.14.714	EXNAT_3_training	2024.1.0	2024-08-28 09h33.31.851922 +0200	
						3	0	3	0																													#F989A2	False	correct rejection	None	1500		1	5	1back_single_training2	1																									MA02	yes	yes	no	2024-08-28_09h31.14.714	EXNAT_3_training	2024.1.0	2024-08-28 09h33.31.851922 +0200	
						3	0	3	0																													#F989A2	True	miss	None	16.405105590820312		2	5	1back_single_training2	1																									MA02	yes	yes	no	2024-08-28_09h31.14.714	EXNAT_3_training	2024.1.0	2024-08-28 09h33.31.851922 +0200	
						3	0	3	0																													#88BA3F	False	correct rejection	None	1020.0800895690918		3	5	1back_single_training2	1																									MA02	yes	yes	no	2024-08-28_09h31.14.714	EXNAT_3_training	2024.1.0	2024-08-28 09h33.31.851922 +0200	
						3	0	3	0																													#D292F3	False	correct rejection	None	517.1241760253906		4	5	1back_single_training2	1																									MA02	yes	yes	no	2024-08-28_09h31.14.714	EXNAT_3_training	2024.1.0	2024-08-28 09h33.31.851922 +0200	
						3	0	3	0																													#2AB7EF	False	correct rejection	None	584.165096282959		5	5	1back_single_training2	1																									MA02	yes	yes	no	2024-08-28_09h31.14.714	EXNAT_3_training	2024.1.0	2024-08-28 09h33.31.851922 +0200	
						3	0	3	0																													#88BA3F	False	correct rejection	None	649.3439674377441		6	5	1back_single_training2	1																									MA02	yes	yes	no	2024-08-28_09h31.14.714	EXNAT_3_training	2024.1.0	2024-08-28 09h33.31.851922 +0200	
						3	0	3	0																													#2AB7EF	False	correct rejection	None	634.2868804931641		7	5	1back_single_training2	1																									MA02	yes	yes	no	2024-08-28_09h31.14.714	EXNAT_3_training	2024.1.0	2024-08-28 09h33.31.851922 +0200	
						3	0	3	0																													#2AB7EF	True	hit	385.5159282684326	952.7640342712402		8	5	1back_single_training2	1																									MA02	yes	yes	no	2024-08-28_09h31.14.714	EXNAT_3_training	2024.1.0	2024-08-28 09h33.31.851922 +0200	
						3	0	3	0																													#D292F3	False	correct rejection	None	483.9761257171631		9	5	1back_single_training2	1																									MA02	yes	yes	no	2024-08-28_09h31.14.714	EXNAT_3_training	2024.1.0	2024-08-28 09h33.31.851922 +0200	
						3	0	3	0																													#D292F3	True	hit	500.69594383239746	1101.8550395965576		10	5	1back_single_training2	1																									MA02	yes	yes	no	2024-08-28_09h31.14.714	EXNAT_3_training	2024.1.0	2024-08-28 09h33.31.851922 +0200	
						3	0	3	0																													#F989A2	False	correct rejection	None	567.457914352417		11	5	1back_single_training2	1																									MA02	yes	yes	no	2024-08-28_09h31.14.714	EXNAT_3_training	2024.1.0	2024-08-28 09h33.31.851922 +0200	
						3	0	3	0																													#2AB7EF	False	correct rejection	None	499.439001083374		12	5	1back_single_training2	1																									MA02	yes	yes	no	2024-08-28_09h31.14.714	EXNAT_3_training	2024.1.0	2024-08-28 09h33.31.851922 +0200	
						3	0	3	0																													#88BA3F	False	correct rejection	None	500.6859302520752		13	5	1back_single_training2	1																									MA02	yes	yes	no	2024-08-28_09h31.14.714	EXNAT_3_training	2024.1.0	2024-08-28 09h33.31.851922 +0200	
						3	0	3	0																													#88BA3F	True	hit	535.7201099395752	1170.2771186828613		14	5	1back_single_training2	1																									MA02	yes	yes	no	2024-08-28_09h31.14.714	EXNAT_3_training	2024.1.0	2024-08-28 09h33.31.851922 +0200	
						3	0	3	0																													#88BA3F	True	hit	517.3990726470947	1168.7030792236328		15	5	1back_single_training2	1																									MA02	yes	yes	no	2024-08-28_09h31.14.714	EXNAT_3_training	2024.1.0	2024-08-28 09h33.31.851922 +0200	
						3	0	3	0																													#F989A2	False	correct rejection	None	684.3688488006592		16	5	1back_single_training2	1																									MA02	yes	yes	no	2024-08-28_09h31.14.714	EXNAT_3_training	2024.1.0	2024-08-28 09h33.31.851922 +0200	
						3	0	3	0																													#2AB7EF	False	correct rejection	None	1051.7799854278564		17	5	1back_single_training2	1																									MA02	yes	yes	no	2024-08-28_09h31.14.714	EXNAT_3_training	2024.1.0	2024-08-28 09h33.31.851922 +0200	
						3	0	3	0																													#D292F3	False	correct rejection	None	582.5331211090088		18	5	1back_single_training2	1																									MA02	yes	yes	no	2024-08-28_09h31.14.714	EXNAT_3_training	2024.1.0	2024-08-28 09h33.31.851922 +0200	
						3	0	3	0																													#2AB7EF	False	correct rejection	None	567.4891471862793		19	5	1back_single_training2	1																									MA02	yes	yes	no	2024-08-28_09h31.14.714	EXNAT_3_training	2024.1.0	2024-08-28 09h33.31.851922 +0200	
						3	0	3	0																													#F989A2	False	correct rejection	None	485.260009765625		20	5	1back_single_training2	1																									MA02	yes	yes	no	2024-08-28_09h31.14.714	EXNAT_3_training	2024.1.0	2024-08-28 09h33.31.851922 +0200	
						3	0	3	0																													#2AB7EF	False	correct rejection	None	1020.0650691986084		1	6	1back_single_main	1																									MA02	yes	yes	no	2024-08-28_09h31.14.714	EXNAT_3_training	2024.1.0	2024-08-28 09h33.31.851922 +0200	
						3	0	3	0																													#88BA3F	False	correct rejection	None	515.7260894775391		2	6	1back_single_main	1																									MA02	yes	yes	no	2024-08-28_09h31.14.714	EXNAT_3_training	2024.1.0	2024-08-28 09h33.31.851922 +0200	
						3	0	3	0																													#2AB7EF	False	correct rejection	None	534.0988636016846		3	6	1back_single_main	1																									MA02	yes	yes	no	2024-08-28_09h31.14.714	EXNAT_3_training	2024.1.0	2024-08-28 09h33.31.851922 +0200	
						3	0	3	0																													#F989A2	False	correct rejection	None	467.2980308532715		4	6	1back_single_main	1																									MA02	yes	yes	no	2024-08-28_09h31.14.714	EXNAT_3_training	2024.1.0	2024-08-28 09h33.31.851922 +0200	
						3	0	3	0																													#D292F3	False	correct rejection	None	550.7829189300537		5	6	1back_single_main	1																									MA02	yes	yes	no	2024-08-28_09h31.14.714	EXNAT_3_training	2024.1.0	2024-08-28 09h33.31.851922 +0200	
						3	0	3	0																													#88BA3F	False	correct rejection	None	500.71191787719727		6	6	1back_single_main	1																									MA02	yes	yes	no	2024-08-28_09h31.14.714	EXNAT_3_training	2024.1.0	2024-08-28 09h33.31.851922 +0200	
						3	0	3	0																													#D292F3	False	correct rejection	None	567.4929618835449		7	6	1back_single_main	1																									MA02	yes	yes	no	2024-08-28_09h31.14.714	EXNAT_3_training	2024.1.0	2024-08-28 09h33.31.851922 +0200	
						3	0	3	0																													#D292F3	True	hit	484.4679832458496	1085.6449604034424		8	6	1back_single_main	1																									MA02	yes	yes	no	2024-08-28_09h31.14.714	EXNAT_3_training	2024.1.0	2024-08-28 09h33.31.851922 +0200	
						3	0	3	0																													#F989A2	False	correct rejection	None	483.9961528778076		9	6	1back_single_main	1																									MA02	yes	yes	no	2024-08-28_09h31.14.714	EXNAT_3_training	2024.1.0	2024-08-28 09h33.31.851922 +0200	
						3	0	3	0																													#2AB7EF	False	correct rejection	None	449.40996170043945		10	6	1back_single_main	1																									MA02	yes	yes	no	2024-08-28_09h31.14.714	EXNAT_3_training	2024.1.0	2024-08-28 09h33.31.851922 +0200	
						3	0	3	0																													#F989A2	False	correct rejection	None	600.8918285369873		11	6	1back_single_main	1																									MA02	yes	yes	no	2024-08-28_09h31.14.714	EXNAT_3_training	2024.1.0	2024-08-28 09h33.31.851922 +0200	
						3	0	3	0																													#88BA3F	False	correct rejection	None	469.01893615722656		12	6	1back_single_main	1																									MA02	yes	yes	no	2024-08-28_09h31.14.714	EXNAT_3_training	2024.1.0	2024-08-28 09h33.31.851922 +0200	
						3	0	3	0																													#F989A2	False	correct rejection	None	567.4939155578613		13	6	1back_single_main	1																									MA02	yes	yes	no	2024-08-28_09h31.14.714	EXNAT_3_training	2024.1.0	2024-08-28 09h33.31.851922 +0200	
						3	0	3	0																													#88BA3F	False	correct rejection	None	550.7698059082031		14	6	1back_single_main	1																									MA02	yes	yes	no	2024-08-28_09h31.14.714	EXNAT_3_training	2024.1.0	2024-08-28 09h33.31.851922 +0200	
						3	0	3	0																													#D292F3	False	correct rejection	None	567.4939155578613		15	6	1back_single_main	1																									MA02	yes	yes	no	2024-08-28_09h31.14.714	EXNAT_3_training	2024.1.0	2024-08-28 09h33.31.851922 +0200	
						3	0	3	0																													#2AB7EF	False	correct rejection	None	600.8589267730713		16	6	1back_single_main	1																									MA02	yes	yes	no	2024-08-28_09h31.14.714	EXNAT_3_training	2024.1.0	2024-08-28 09h33.31.851922 +0200	
						3	0	3	0																													#F989A2	False	correct rejection	None	534.0988636016846		17	6	1back_single_main	1																									MA02	yes	yes	no	2024-08-28_09h31.14.714	EXNAT_3_training	2024.1.0	2024-08-28 09h33.31.851922 +0200	
						3	0	3	0																													#F989A2	True	hit	400.50315856933594	1068.4630870819092		18	6	1back_single_main	1																									MA02	yes	yes	no	2024-08-28_09h31.14.714	EXNAT_3_training	2024.1.0	2024-08-28 09h33.31.851922 +0200	
						3	0	3	0																													#D292F3	False	correct rejection	None	534.0878963470459		19	6	1back_single_main	1																									MA02	yes	yes	no	2024-08-28_09h31.14.714	EXNAT_3_training	2024.1.0	2024-08-28 09h33.31.851922 +0200	
						3	0	3	0																													#2AB7EF	False	correct rejection	None	467.2989845275879		20	6	1back_single_main	1																									MA02	yes	yes	no	2024-08-28_09h31.14.714	EXNAT_3_training	2024.1.0	2024-08-28 09h33.31.851922 +0200	
						3	0	3	0																													#88BA3F	False	correct rejection	None	500.6899833679199		21	6	1back_single_main	1																									MA02	yes	yes	no	2024-08-28_09h31.14.714	EXNAT_3_training	2024.1.0	2024-08-28 09h33.31.851922 +0200	
						3	0	3	0																													#2AB7EF	False	correct rejection	None	585.9150886535645		22	6	1back_single_main	1																									MA02	yes	yes	no	2024-08-28_09h31.14.714	EXNAT_3_training	2024.1.0	2024-08-28 09h33.31.851922 +0200	
						3	0	3	0																													#D292F3	False	correct rejection	None	467.28014945983887		23	6	1back_single_main	1																									MA02	yes	yes	no	2024-08-28_09h31.14.714	EXNAT_3_training	2024.1.0	2024-08-28 09h33.31.851922 +0200	
						3	0	3	0																													#88BA3F	False	correct rejection	None	567.9528713226318		24	6	1back_single_main	1																									MA02	yes	yes	no	2024-08-28_09h31.14.714	EXNAT_3_training	2024.1.0	2024-08-28 09h33.31.851922 +0200	
						3	0	3	0																													#2AB7EF	False	correct rejection	None	483.9780330657959		25	6	1back_single_main	1																									MA02	yes	yes	no	2024-08-28_09h31.14.714	EXNAT_3_training	2024.1.0	2024-08-28 09h33.31.851922 +0200	
						3	0	3	0																													#F989A2	False	correct rejection	None	701.0650634765625		26	6	1back_single_main	1																									MA02	yes	yes	no	2024-08-28_09h31.14.714	EXNAT_3_training	2024.1.0	2024-08-28 09h33.31.851922 +0200	
						3	0	3	0																													#88BA3F	False	correct rejection	None	600.8961200714111		27	6	1back_single_main	1																									MA02	yes	yes	no	2024-08-28_09h31.14.714	EXNAT_3_training	2024.1.0	2024-08-28 09h33.31.851922 +0200	
						3	0	3	0																													#2AB7EF	False	correct rejection	None	500.69189071655273		28	6	1back_single_main	1																									MA02	yes	yes	no	2024-08-28_09h31.14.714	EXNAT_3_training	2024.1.0	2024-08-28 09h33.31.851922 +0200	
						3	0	3	0																													#88BA3F	False	correct rejection	None	649.8141288757324		29	6	1back_single_main	1																									MA02	yes	yes	no	2024-08-28_09h31.14.714	EXNAT_3_training	2024.1.0	2024-08-28 09h33.31.851922 +0200	
						3	0	3	0																													#D292F3	False	correct rejection	None	467.29493141174316		30	6	1back_single_main	1																									MA02	yes	yes	no	2024-08-28_09h31.14.714	EXNAT_3_training	2024.1.0	2024-08-28 09h33.31.851922 +0200	
						3	0	3	0																													#2AB7EF	False	correct rejection	None	433.98189544677734		31	6	1back_single_main	1																									MA02	yes	yes	no	2024-08-28_09h31.14.714	EXNAT_3_training	2024.1.0	2024-08-28 09h33.31.851922 +0200	
						3	0	3	0																													#88BA3F	False	correct rejection	None	584.7129821777344		32	6	1back_single_main	1																									MA02	yes	yes	no	2024-08-28_09h31.14.714	EXNAT_3_training	2024.1.0	2024-08-28 09h33.31.851922 +0200	
						3	0	3	0																													#D292F3	False	correct rejection	None	517.8399085998535		33	6	1back_single_main	1																									MA02	yes	yes	no	2024-08-28_09h31.14.714	EXNAT_3_training	2024.1.0	2024-08-28 09h33.31.851922 +0200	
						3	0	3	0																													#D292F3	True	hit	467.2892093658447	1168.6360836029053		34	6	1back_single_main	1																									MA02	yes	yes	no	2024-08-28_09h31.14.714	EXNAT_3_training	2024.1.0	2024-08-28 09h33.31.851922 +0200	
						3	0	3	0																													#F989A2	False	correct rejection	None	534.1050624847412		35	6	1back_single_main	1																									MA02	yes	yes	no	2024-08-28_09h31.14.714	EXNAT_3_training	2024.1.0	2024-08-28 09h33.31.851922 +0200	
						3	0	3	0																													#F989A2	True	hit	565.8609867095947	1183.7291717529297		36	6	1back_single_main	1																									MA02	yes	yes	no	2024-08-28_09h31.14.714	EXNAT_3_training	2024.1.0	2024-08-28 09h33.31.851922 +0200	
						3	0	3	0																													#88BA3F	False	correct rejection	None	483.9918613433838		37	6	1back_single_main	1																									MA02	yes	yes	no	2024-08-28_09h31.14.714	EXNAT_3_training	2024.1.0	2024-08-28 09h33.31.851922 +0200	
						3	0	3	0																													#F989A2	False	correct rejection	None	534.5180034637451		38	6	1back_single_main	1																									MA02	yes	yes	no	2024-08-28_09h31.14.714	EXNAT_3_training	2024.1.0	2024-08-28 09h33.31.851922 +0200	
						3	0	3	0																													#F989A2	True	hit	517.3921585083008	1202.0480632781982		39	6	1back_single_main	1																									MA02	yes	yes	no	2024-08-28_09h31.14.714	EXNAT_3_training	2024.1.0	2024-08-28 09h33.31.851922 +0200	
						3	0	3	0																													#D292F3	False	correct rejection	None	484.00187492370605		40	6	1back_single_main	1																									MA02	yes	yes	no	2024-08-28_09h31.14.714	EXNAT_3_training	2024.1.0	2024-08-28 09h33.31.851922 +0200	
						3	0	3	0																													#D292F3	True	hit	1035.0561141967773	1435.8351230621338		41	6	1back_single_main	1																									MA02	yes	yes	no	2024-08-28_09h31.14.714	EXNAT_3_training	2024.1.0	2024-08-28 09h33.31.851922 +0200	
						3	0	3	0																													#88BA3F	False	correct rejection	None	467.30804443359375		42	6	1back_single_main	1																									MA02	yes	yes	no	2024-08-28_09h31.14.714	EXNAT_3_training	2024.1.0	2024-08-28 09h33.31.851922 +0200	
						3	0	3	0																													#2AB7EF	False	correct rejection	None	534.1019630432129		43	6	1back_single_main	1																									MA02	yes	yes	no	2024-08-28_09h31.14.714	EXNAT_3_training	2024.1.0	2024-08-28 09h33.31.851922 +0200	
						3	0	3	0																													#2AB7EF	True	hit	634.2978477478027	1168.665885925293		44	6	1back_single_main	1																									MA02	yes	yes	no	2024-08-28_09h31.14.714	EXNAT_3_training	2024.1.0	2024-08-28 09h33.31.851922 +0200	
						3	0	3	0																													#88BA3F	False	correct rejection	None	435.60004234313965		45	6	1back_single_main	1																									MA02	yes	yes	no	2024-08-28_09h31.14.714	EXNAT_3_training	2024.1.0	2024-08-28 09h33.31.851922 +0200	
						3	0	3	0																													#D292F3	False	correct rejection	None	534.5351696014404		46	6	1back_single_main	1																									MA02	yes	yes	no	2024-08-28_09h31.14.714	EXNAT_3_training	2024.1.0	2024-08-28 09h33.31.851922 +0200	
						3	0	3	0																													#2AB7EF	False	correct rejection	None	567.4729347229004		47	6	1back_single_main	1																									MA02	yes	yes	no	2024-08-28_09h31.14.714	EXNAT_3_training	2024.1.0	2024-08-28 09h33.31.851922 +0200	
						3	0	3	0																													#F989A2	False	correct rejection	None	500.6721019744873		48	6	1back_single_main	1																									MA02	yes	yes	no	2024-08-28_09h31.14.714	EXNAT_3_training	2024.1.0	2024-08-28 09h33.31.851922 +0200	
						3	0	3	0																													#2AB7EF	False	correct rejection	None	550.7960319519043		49	6	1back_single_main	1																									MA02	yes	yes	no	2024-08-28_09h31.14.714	EXNAT_3_training	2024.1.0	2024-08-28 09h33.31.851922 +0200	
						3	0	3	0																													#F989A2	False	correct rejection	None	582.5579166412354		50	6	1back_single_main	1																									MA02	yes	yes	no	2024-08-28_09h31.14.714	EXNAT_3_training	2024.1.0	2024-08-28 09h33.31.851922 +0200	
						3	0	3	0																													#88BA3F	False	correct rejection	None	417.20008850097656		51	6	1back_single_main	1																									MA02	yes	yes	no	2024-08-28_09h31.14.714	EXNAT_3_training	2024.1.0	2024-08-28 09h33.31.851922 +0200	
						3	0	3	0																													#88BA3F	True	hit	501.816987991333	1103.5749912261963		52	6	1back_single_main	1																									MA02	yes	yes	no	2024-08-28_09h31.14.714	EXNAT_3_training	2024.1.0	2024-08-28 09h33.31.851922 +0200	
						3	0	3	0																													#D292F3	False	correct rejection	None	517.8999900817871		53	6	1back_single_main	1																									MA02	yes	yes	no	2024-08-28_09h31.14.714	EXNAT_3_training	2024.1.0	2024-08-28 09h33.31.851922 +0200	
						3	0	3	0																													#F989A2	False	correct rejection	None	567.0080184936523		54	6	1back_single_main	1																									MA02	yes	yes	no	2024-08-28_09h31.14.714	EXNAT_3_training	2024.1.0	2024-08-28 09h33.31.851922 +0200	
						3	0	3	0																													#D292F3	False	correct rejection	None	667.6998138427734		55	6	1back_single_main	1																									MA02	yes	yes	no	2024-08-28_09h31.14.714	EXNAT_3_training	2024.1.0	2024-08-28 09h33.31.851922 +0200	
						3	0	3	0																													#D292F3	True	hit	517.4028873443604	1151.9689559936523		56	6	1back_single_main	1																									MA02	yes	yes	no	2024-08-28_09h31.14.714	EXNAT_3_training	2024.1.0	2024-08-28 09h33.31.851922 +0200	
						3	0	3	0																													#88BA3F	False	correct rejection	None	482.3610782623291		57	6	1back_single_main	1																									MA02	yes	yes	no	2024-08-28_09h31.14.714	EXNAT_3_training	2024.1.0	2024-08-28 09h33.31.851922 +0200	
						3	0	3	0																													#2AB7EF	False	correct rejection	None	500.70691108703613		58	6	1back_single_main	1																									MA02	yes	yes	no	2024-08-28_09h31.14.714	EXNAT_3_training	2024.1.0	2024-08-28 09h33.31.851922 +0200	
						3	0	3	0																													#2AB7EF	True	hit	953.239917755127	1404.0827751159668		59	6	1back_single_main	1																									MA02	yes	yes	no	2024-08-28_09h31.14.714	EXNAT_3_training	2024.1.0	2024-08-28 09h33.31.851922 +0200	
						3	0	3	0																													#F989A2	False	correct rejection	None	416.7211055755615		60	6	1back_single_main	1																									MA02	yes	yes	no	2024-08-28_09h31.14.714	EXNAT_3_training	2024.1.0	2024-08-28 09h33.31.851922 +0200	
						3	0	3	0																											773.4255149364471	773.4255239963531	#2AB7EF	False	correct rejection	None	1034.2979431152344	text_01	1	7	1back_dual_main_click	1	Ältere																								MA02	yes	yes	no	2024-08-28_09h31.14.714	EXNAT_3_training	2024.1.0	2024-08-28 09h33.31.851922 +0200	
						3	0	3	0																													#2AB7EF	True	hit	614.2449378967285	1280.5359363555908	text_01	2	7	1back_dual_main_click	1	Leitkühe																								MA02	yes	yes	no	2024-08-28_09h31.14.714	EXNAT_3_training	2024.1.0	2024-08-28 09h33.31.851922 +0200	
						3	0	3	0																													#88BA3F	False	correct rejection	None	798.8729476928711	text_01	3	7	1back_dual_main_click	1	treffen																								MA02	yes	yes	no	2024-08-28_09h31.14.714	EXNAT_3_training	2024.1.0	2024-08-28 09h33.31.851922 +0200	
						3	0	3	0																													#F989A2	False	correct rejection	None	882.3740482330322	text_01	4	7	1back_dual_main_click	1	bessere																								MA02	yes	yes	no	2024-08-28_09h31.14.714	EXNAT_3_training	2024.1.0	2024-08-28 09h33.31.851922 +0200	
						3	0	3	0																													#F989A2	True	hit	599.4470119476318	1167.191982269287	text_01	5	7	1back_dual_main_click	1	Entscheidungen																								MA02	yes	yes	no	2024-08-28_09h31.14.714	EXNAT_3_training	2024.1.0	2024-08-28 09h33.31.851922 +0200	
						3	0	3	0																													#D292F3	False	correct rejection	None	782.8800678253174	text_01	6	7	1back_dual_main_click	1	für																								MA02	yes	yes	no	2024-08-28_09h31.14.714	EXNAT_3_training	2024.1.0	2024-08-28 09h33.31.851922 +0200	
