DisplayImage,corrAns,ishihara_pics.thisRepN,ishihara_pics.thisTrialN,ishihara_pics.thisN,ishihara_pics.thisIndex,blocks.thisRepN,blocks.thisTrialN,blocks.thisN,blocks.thisIndex,thisRow.t,notes,Settings.started,Settings.stopped,demographics.started,demographics.stopped,demographic_form.index,demographic_form.itemText,demographic_form.type,demographic_form.font,demographic_form.markerColor,demographic_form.response,demographic_form.rt,education.started,education.stopped,edu_form.index,edu_form.itemText,edu_form.type,edu_form.font,edu_form.markerColor,edu_form.response,edu_form.rt,Ishihara.started,Ishihara.stopped,ishihara_number.text,no_text_blocks_self_paced.started,no_text_blocks_self_paced.stopped,text_blocks_self_paced.started,colour,target,nback_response,nback_RT,duration,text_nr,trial_nr,block_nr,block_name,block_kind,word,global_onset_time,question,button_pressed,chosen_ans,ans_correct,block_nr_exp,n-back_level,text_blocks_self_paced.stopped,text_blocks_paced.started,text_blocks_paced.stopped,no_text_blocks_paced.started,no_text_blocks_paced.stopped,pseudotext.started,pseudotext.stopped,curr_0back_target,RT_per_letter_baseline,participant,testing_mode,date,expName,psychopyVersion,expStart,
,,,,,,,,,,,,0.017613887786865234,0.018105030059814453,,,,,,,,,,,,,,,,,,,,,,,,,,,,,,,,,,,,,,,,,,,,,,,,,,,,OA01,no,2024-08-22_10h54.07.157,EXNAT_3_training,2024.1.0,2024-08-22 10h54.19.658026 +0200,
,,,,,,,,,,,,,,0.01813483238220215,92.8953628540039,0.0,Willkommen zum Experiment!,heading,None,None,,,,,,,,,,,,,,,,,,,,,,,,,,,,,,,,,,,,,,,,,,,,,OA01,no,2024-08-22_10h54.07.157,EXNAT_3_training,2024.1.0,2024-08-22 10h54.19.658026 +0200,
,,,,,,,,,,,,,,,,0.0,Bitte beantworten Sie zunächst die folgenden Fragen:,description,None,None,,,,,,,,,,,,,,,,,,,,,,,,,,,,,,,,,,,,,,,,,,,,,OA01,no,2024-08-22_10h54.07.157,EXNAT_3_training,2024.1.0,2024-08-22 10h54.19.658026 +0200,
,,,,,,,,,,,,,,,,gender,Welches Geschlecht steht in Ihrem Ausweis?,radio,None,None,Männlich,54.61857295036316,,,,,,,,,,,,,,,,,,,,,,,,,,,,,,,,,,,,,,,,,,,OA01,no,2024-08-22_10h54.07.157,EXNAT_3_training,2024.1.0,2024-08-22 10h54.19.658026 +0200,
,,,,,,,,,,,,,,,,age,Wie alt sind Sie?,free text,None,None,76,None,,,,,,,,,,,,,,,,,,,,,,,,,,,,,,,,,,,,,,,,,,,OA01,no,2024-08-22_10h54.07.157,EXNAT_3_training,2024.1.0,2024-08-22 10h54.19.658026 +0200,
,,,,,,,,,,,,,,,,language,Ist Deutsch Ihre Muttersprache?,radio,None,None,Ja,76.67108702659607,,,,,,,,,,,,,,,,,,,,,,,,,,,,,,,,,,,,,,,,,,,OA01,no,2024-08-22_10h54.07.157,EXNAT_3_training,2024.1.0,2024-08-22 10h54.19.658026 +0200,
,,,,,,,,,,,,,,,,dyslexia,Haben Sie eine Leseschwäche?,radio,None,None,Nein,80.32689714431763,,,,,,,,,,,,,,,,,,,,,,,,,,,,,,,,,,,,,,,,,,,OA01,no,2024-08-22_10h54.07.157,EXNAT_3_training,2024.1.0,2024-08-22 10h54.19.658026 +0200,
,,,,,,,,,,,,,,,,vision_glasses,Tragen Sie eine Brille?,radio,None,None,Nein,12.173969984054565,,,,,,,,,,,,,,,,,,,,,,,,,,,,,,,,,,,,,,,,,,,OA01,no,2024-08-22_10h54.07.157,EXNAT_3_training,2024.1.0,2024-08-22 10h54.19.658026 +0200,
,,,,,,,,,,,,,,,,vision_lenses,Tragen Sie Kontaktlinsen?,radio,None,None,Nein,13.518891096115112,,,,,,,,,,,,,,,,,,,,,,,,,,,,,,,,,,,,,,,,,,,OA01,no,2024-08-22_10h54.07.157,EXNAT_3_training,2024.1.0,2024-08-22 10h54.19.658026 +0200,
,,,,,,,,,,,,,,,,handedness,Sind Sie rechtshändig?,radio,None,None,Ja,14.421205997467041,,,,,,,,,,,,,,,,,,,,,,,,,,,,,,,,,,,,,,,,,,,OA01,no,2024-08-22_10h54.07.157,EXNAT_3_training,2024.1.0,2024-08-22 10h54.19.658026 +0200,
,,,,,,,,,,,,,,,,,,,,,,,,,,,,,,,,,,,,,,,,,,,,,,,,,,,,,,,,,,,,,,,,,OA01,no,2024-08-22_10h54.07.157,EXNAT_3_training,2024.1.0,2024-08-22 10h54.19.658026 +0200,
,,,,,,,,,,,,,,,,,,,,,,,92.89551496505737,180.5994689464569,0.0,Bitte beantworten Sie die folgenden Fragen zu Ihrer Ausbildung:,description,None,None,,,,,,,,,,,,,,,,,,,,,,,,,,,,,,,,,,,,OA01,no,2024-08-22_10h54.07.157,EXNAT_3_training,2024.1.0,2024-08-22 10h54.19.658026 +0200,
,,,,,,,,,,,,,,,,,,,,,,,,,education,Was ist Ihr höchster Bildungsabschluss?,radio,None,None,abgeschlossene Ausbildung,17.943310022354126,,,,,,,,,,,,,,,,,,,,,,,,,,,,,,,,,,OA01,no,2024-08-22_10h54.07.157,EXNAT_3_training,2024.1.0,2024-08-22 10h54.19.658026 +0200,
,,,,,,,,,,,,,,,,,,,,,,,,,edu_intro,Wie viele Jahre verbrachten Sie insgesamt mit:,description,None,None,,,,,,,,,,,,,,,,,,,,,,,,,,,,,,,,,,,,OA01,no,2024-08-22_10h54.07.157,EXNAT_3_training,2024.1.0,2024-08-22 10h54.19.658026 +0200,
,,,,,,,,,,,,,,,,,,,,,,,,,edu_school_years,Schule,free text,None,None,8,None,,,,,,,,,,,,,,,,,,,,,,,,,,,,,,,,,,OA01,no,2024-08-22_10h54.07.157,EXNAT_3_training,2024.1.0,2024-08-22 10h54.19.658026 +0200,
,,,,,,,,,,,,,,,,,,,,,,,,,edu_eveningschool_years,Abendschule,free text,None,None,2,None,,,,,,,,,,,,,,,,,,,,,,,,,,,,,,,,,,OA01,no,2024-08-22_10h54.07.157,EXNAT_3_training,2024.1.0,2024-08-22 10h54.19.658026 +0200,
,,,,,,,,,,,,,,,,,,,,,,,,,edu_training_years,Ausbildung,free text,None,None,3,None,,,,,,,,,,,,,,,,,,,,,,,,,,,,,,,,,,OA01,no,2024-08-22_10h54.07.157,EXNAT_3_training,2024.1.0,2024-08-22 10h54.19.658026 +0200,
,,,,,,,,,,,,,,,,,,,,,,,,,edu_training_GDR_years,Fachschule,free text,None,None,3,None,,,,,,,,,,,,,,,,,,,,,,,,,,,,,,,,,,OA01,no,2024-08-22_10h54.07.157,EXNAT_3_training,2024.1.0,2024-08-22 10h54.19.658026 +0200,
,,,,,,,,,,,,,,,,,,,,,,,,,edu_uni_years,Universität/Hochschule,free text,None,None,0,None,,,,,,,,,,,,,,,,,,,,,,,,,,,,,,,,,,OA01,no,2024-08-22_10h54.07.157,EXNAT_3_training,2024.1.0,2024-08-22 10h54.19.658026 +0200,
,,,,,,,,,,,,,,,,,,,,,,,,,edu_other_years,Sonstiges,free text,None,None,0,None,,,,,,,,,,,,,,,,,,,,,,,,,,,,,,,,,,OA01,no,2024-08-22_10h54.07.157,EXNAT_3_training,2024.1.0,2024-08-22 10h54.19.658026 +0200,
,,,,,,,,,,,,,,,,,,,,,,,,,edu_profession,Was ist Ihr derzeitiger/letzter Beruf?,free text,None,None,Renter (Bäckermeister),None,,,,,,,,,,,,,,,,,,,,,,,,,,,,,,,,,,OA01,no,2024-08-22_10h54.07.157,EXNAT_3_training,2024.1.0,2024-08-22 10h54.19.658026 +0200,
,,,,,,,,,,,,,,,,,,,,,,,,,,,,,,,,,,,,,,,,,,,,,,,,,,,,,,,,,,,,,,,,,OA01,no,2024-08-22_10h54.07.157,EXNAT_3_training,2024.1.0,2024-08-22 10h54.19.658026 +0200,
,,,,,,,,,,,,,,,,,,,,,,,,,,,,,,,,,,,,,,,,,,,,,,,,,,,,,,,,,,,,,,,,,OA01,no,2024-08-22_10h54.07.157,EXNAT_3_training,2024.1.0,2024-08-22 10h54.19.658026 +0200,
Stimuli_and_Resources/Ishihara_Colour_Vision_Test/ishihara_test1_70.png,70,0,0,0,0,,,,,189.91677403450012,,,,,,,,,,,,,,,,,,,,,,189.85814094543457,193.25615096092224,70,,,,,,,,,,,,,,,,,,,,,,,,,,,,,,,OA01,no,2024-08-22_10h54.07.157,EXNAT_3_training,2024.1.0,2024-08-22 10h54.19.658026 +0200,
Stimuli_and_Resources/Ishihara_Colour_Vision_Test/ishihara_test4_78.png,78,0,1,1,3,,,,,194.30866885185242,,,,,,,,,,,,,,,,,,,,,,194.25898599624634,196.99847292900085,78,,,,,,,,,,,,,,,,,,,,,,,,,,,,,,,OA01,no,2024-08-22_10h54.07.157,EXNAT_3_training,2024.1.0,2024-08-22 10h54.19.658026 +0200,
Stimuli_and_Resources/Ishihara_Colour_Vision_Test/ishihara_test2_17.png,17,0,2,2,1,,,,,198.04798483848572,,,,,,,,,,,,,,,,,,,,,,197.99859499931335,200.7039918899536,17,,,,,,,,,,,,,,,,,,,,,,,,,,,,,,,OA01,no,2024-08-22_10h54.07.157,EXNAT_3_training,2024.1.0,2024-08-22 10h54.19.658026 +0200,
Stimuli_and_Resources/Ishihara_Colour_Vision_Test/ishihara_test6_15.png,15,0,3,3,5,,,,,201.756502866745,,,,,,,,,,,,,,,,,,,,,,201.70682001113892,205.27959990501404,15,,,,,,,,,,,,,,,,,,,,,,,,,,,,,,,OA01,no,2024-08-22_10h54.07.157,EXNAT_3_training,2024.1.0,2024-08-22 10h54.19.658026 +0200,
Stimuli_and_Resources/Ishihara_Colour_Vision_Test/ishihara_test3_21.png,21,0,4,4,2,,,,,206.3320770263672,,,,,,,,,,,,,,,,,,,,,,206.28242683410645,208.9868140220642,21,,,,,,,,,,,,,,,,,,,,,,,,,,,,,,,OA01,no,2024-08-22_10h54.07.157,EXNAT_3_training,2024.1.0,2024-08-22 10h54.19.658026 +0200,
Stimuli_and_Resources/Ishihara_Colour_Vision_Test/ishihara_test5_23.png,23,0,5,5,4,,,,,210.03801798820496,,,,,,,,,,,,,,,,,,,,,,209.9884479045868,213.4620978832245,23,,,,,,,,,,,,,,,,,,,,,,,,,,,,,,,OA01,no,2024-08-22_10h54.07.157,EXNAT_3_training,2024.1.0,2024-08-22 10h54.19.658026 +0200,
,,,,,,0,0,0,0,214.48020601272583,,,,,,,,,,,,,,,,,,,,,,,,,214.4641740322113,214.48028802871704,214.48029685020447,#D292F3,None,None,None,1500,reading_bl_training_text,1,0,Reading_Baseline_training_click,None,Auf,,,,,,,,,,,,,,,,,OA01,no,2024-08-22_10h54.07.157,EXNAT_3_training,2024.1.0,2024-08-22 10h54.19.658026 +0200,
,,,,,,0,0,0,0,,,,,,,,,,,,,,,,,,,,,,,,,,,,,#2AB7EF,None,None,None,1500,reading_bl_training_text,2,0,Reading_Baseline_training_click,None,dem,,,,,,,,,,,,,,,,,OA01,no,2024-08-22_10h54.07.157,EXNAT_3_training,2024.1.0,2024-08-22 10h54.19.658026 +0200,
,,,,,,0,0,0,0,,,,,,,,,,,,,,,,,,,,,,,,,,,,,#D292F3,None,None,None,1500,reading_bl_training_text,3,0,Reading_Baseline_training_click,None,großen,,,,,,,,,,,,,,,,,OA01,no,2024-08-22_10h54.07.157,EXNAT_3_training,2024.1.0,2024-08-22 10h54.19.658026 +0200,
,,,,,,0,0,0,0,,,,,,,,,,,,,,,,,,,,,,,,,,,,,#2AB7EF,None,None,None,1500,reading_bl_training_text,4,0,Reading_Baseline_training_click,None,"Passagierdampfer,",,,,,,,,,,,,,,,,,OA01,no,2024-08-22_10h54.07.157,EXNAT_3_training,2024.1.0,2024-08-22 10h54.19.658026 +0200,
,,,,,,0,0,0,0,,,,,,,,,,,,,,,,,,,,,,,,,,,,,#88BA3F,None,None,None,1500,reading_bl_training_text,5,0,Reading_Baseline_training_click,None,der,,,,,,,,,,,,,,,,,OA01,no,2024-08-22_10h54.07.157,EXNAT_3_training,2024.1.0,2024-08-22 10h54.19.658026 +0200,
,,,,,,0,0,0,0,,,,,,,,,,,,,,,,,,,,,,,,,,,,,#2AB7EF,None,None,None,1500,reading_bl_training_text,6,0,Reading_Baseline_training_click,None,um,,,,,,,,,,,,,,,,,OA01,no,2024-08-22_10h54.07.157,EXNAT_3_training,2024.1.0,2024-08-22 10h54.19.658026 +0200,
,,,,,,0,0,0,0,,,,,,,,,,,,,,,,,,,,,,,,,,,,,#D292F3,None,None,None,1500,reading_bl_training_text,7,0,Reading_Baseline_training_click,None,Mitternacht,,,,,,,,,,,,,,,,,OA01,no,2024-08-22_10h54.07.157,EXNAT_3_training,2024.1.0,2024-08-22 10h54.19.658026 +0200,
,,,,,,0,0,0,0,,,,,,,,,,,,,,,,,,,,,,,,,,,,,#88BA3F,None,None,None,1500,reading_bl_training_text,8,0,Reading_Baseline_training_click,None,von,,,,,,,,,,,,,,,,,OA01,no,2024-08-22_10h54.07.157,EXNAT_3_training,2024.1.0,2024-08-22 10h54.19.658026 +0200,
,,,,,,0,0,0,0,,,,,,,,,,,,,,,,,,,,,,,,,,,,,#88BA3F,None,None,None,1500,reading_bl_training_text,9,0,Reading_Baseline_training_click,None,New,,,,,,,,,,,,,,,,,OA01,no,2024-08-22_10h54.07.157,EXNAT_3_training,2024.1.0,2024-08-22 10h54.19.658026 +0200,
,,,,,,0,0,0,0,,,,,,,,,,,,,,,,,,,,,,,,,,,,,#F989A2,None,None,None,1500,reading_bl_training_text,10,0,Reading_Baseline_training_click,None,York,,,,,,,,,,,,,,,,,OA01,no,2024-08-22_10h54.07.157,EXNAT_3_training,2024.1.0,2024-08-22 10h54.19.658026 +0200,
,,,,,,0,0,0,0,,,,,,,,,,,,,,,,,,,,,,,,,,,,,#F989A2,None,None,None,1500,reading_bl_training_text,11,0,Reading_Baseline_training_click,None,nach,,,,,,,,,,,,,,,,,OA01,no,2024-08-22_10h54.07.157,EXNAT_3_training,2024.1.0,2024-08-22 10h54.19.658026 +0200,
,,,,,,0,0,0,0,,,,,,,,,,,,,,,,,,,,,,,,,,,,,#F989A2,None,None,None,1500,reading_bl_training_text,12,0,Reading_Baseline_training_click,None,Buenos,,,,,,,,,,,,,,,,,OA01,no,2024-08-22_10h54.07.157,EXNAT_3_training,2024.1.0,2024-08-22 10h54.19.658026 +0200,
,,,,,,0,0,0,0,,,,,,,,,,,,,,,,,,,,,,,,,,,,,#D292F3,None,None,None,1500,reading_bl_training_text,13,0,Reading_Baseline_training_click,None,Aires,,,,,,,,,,,,,,,,,OA01,no,2024-08-22_10h54.07.157,EXNAT_3_training,2024.1.0,2024-08-22 10h54.19.658026 +0200,
,,,,,,0,0,0,0,,,,,,,,,,,,,,,,,,,,,,,,,,,,,#F989A2,None,None,None,1500,reading_bl_training_text,14,0,Reading_Baseline_training_click,None,abgehen,,,,,,,,,,,,,,,,,OA01,no,2024-08-22_10h54.07.157,EXNAT_3_training,2024.1.0,2024-08-22 10h54.19.658026 +0200,
,,,,,,0,0,0,0,,,,,,,,,,,,,,,,,,,,,,,,,,,,,#F989A2,None,None,None,1500,reading_bl_training_text,15,0,Reading_Baseline_training_click,None,"sollte,",,,,,,,,,,,,,,,,,OA01,no,2024-08-22_10h54.07.157,EXNAT_3_training,2024.1.0,2024-08-22 10h54.19.658026 +0200,
,,,,,,0,0,0,0,,,,,,,,,,,,,,,,,,,,,,,,,,,,,#2AB7EF,None,None,None,1500,reading_bl_training_text,16,0,Reading_Baseline_training_click,None,herrschte,,,,,,,,,,,,,,,,,OA01,no,2024-08-22_10h54.07.157,EXNAT_3_training,2024.1.0,2024-08-22 10h54.19.658026 +0200,
,,,,,,0,0,0,0,,,,,,,,,,,,,,,,,,,,,,,,,,,,,#88BA3F,None,None,None,1500,reading_bl_training_text,17,0,Reading_Baseline_training_click,None,die,,,,,,,,,,,,,,,,,OA01,no,2024-08-22_10h54.07.157,EXNAT_3_training,2024.1.0,2024-08-22 10h54.19.658026 +0200,
,,,,,,0,0,0,0,,,,,,,,,,,,,,,,,,,,,,,,,,,,,#F989A2,None,None,None,1500,reading_bl_training_text,18,0,Reading_Baseline_training_click,None,übliche,,,,,,,,,,,,,,,,,OA01,no,2024-08-22_10h54.07.157,EXNAT_3_training,2024.1.0,2024-08-22 10h54.19.658026 +0200,
,,,,,,0,0,0,0,,,,,,,,,,,,,,,,,,,,,,,,,,,,,#2AB7EF,None,None,None,1500,reading_bl_training_text,19,0,Reading_Baseline_training_click,None,Geschäftigkeit,,,,,,,,,,,,,,,,,OA01,no,2024-08-22_10h54.07.157,EXNAT_3_training,2024.1.0,2024-08-22 10h54.19.658026 +0200,
,,,,,,0,0,0,0,,,,,,,,,,,,,,,,,,,,,,,,,,,,,#88BA3F,None,None,None,1500,reading_bl_training_text,20,0,Reading_Baseline_training_click,None,und,,,,,,,,,,,,,,,,,OA01,no,2024-08-22_10h54.07.157,EXNAT_3_training,2024.1.0,2024-08-22 10h54.19.658026 +0200,
,,,,,,0,0,0,0,,,,,,,,,,,,,,,,,,,,,,,,,,,,,#88BA3F,None,None,None,298.6581325531006,reading_bl_training_text,21,0,Reading_Baseline_training_click,None,Bewegung,,,,,,,,,,,,,,,,,OA01,no,2024-08-22_10h54.07.157,EXNAT_3_training,2024.1.0,2024-08-22 10h54.19.658026 +0200,
,,,,,,0,0,0,0,,,,,,,,,,,,,,,,,,,,,,,,,,,,,#D292F3,None,None,None,1500,reading_bl_training_text,22,0,Reading_Baseline_training_click,None,der,,,,,,,,,,,,,,,,,OA01,no,2024-08-22_10h54.07.157,EXNAT_3_training,2024.1.0,2024-08-22 10h54.19.658026 +0200,
,,,,,,0,0,0,0,,,,,,,,,,,,,,,,,,,,,,,,,,,,,#2AB7EF,None,None,None,1500,reading_bl_training_text,23,0,Reading_Baseline_training_click,None,letzten,,,,,,,,,,,,,,,,,OA01,no,2024-08-22_10h54.07.157,EXNAT_3_training,2024.1.0,2024-08-22 10h54.19.658026 +0200,
,,,,,,0,0,0,0,,,,,,,,,,,,,,,,,,,,,,,,,,,,,#D292F3,None,None,None,1500,reading_bl_training_text,24,0,Reading_Baseline_training_click,None,Stunde.,,,,,,,,,,,,,,,,,OA01,no,2024-08-22_10h54.07.157,EXNAT_3_training,2024.1.0,2024-08-22 10h54.19.658026 +0200,
,,,,,,0,0,0,0,,,,,,,,,,,,,,,,,,,,,,,,,,,,,#F989A2,None,None,None,1500,reading_bl_training_text,25,0,Reading_Baseline_training_click,None,Gäste,,,,,,,,,,,,,,,,,OA01,no,2024-08-22_10h54.07.157,EXNAT_3_training,2024.1.0,2024-08-22 10h54.19.658026 +0200,
,,,,,,0,0,0,0,,,,,,,,,,,,,,,,,,,,,,,,,,,,,#88BA3F,None,None,None,1500,reading_bl_training_text,26,0,Reading_Baseline_training_click,None,vom,,,,,,,,,,,,,,,,,OA01,no,2024-08-22_10h54.07.157,EXNAT_3_training,2024.1.0,2024-08-22 10h54.19.658026 +0200,
,,,,,,0,0,0,0,,,,,,,,,,,,,,,,,,,,,,,,,,,,,#88BA3F,None,None,None,1500,reading_bl_training_text,27,0,Reading_Baseline_training_click,None,Land,,,,,,,,,,,,,,,,,OA01,no,2024-08-22_10h54.07.157,EXNAT_3_training,2024.1.0,2024-08-22 10h54.19.658026 +0200,
,,,,,,0,0,0,0,,,,,,,,,,,,,,,,,,,,,,,,,,,,,#88BA3F,None,None,None,1500,reading_bl_training_text,28,0,Reading_Baseline_training_click,None,verabschiedeten,,,,,,,,,,,,,,,,,OA01,no,2024-08-22_10h54.07.157,EXNAT_3_training,2024.1.0,2024-08-22 10h54.19.658026 +0200,
,,,,,,0,0,0,0,,,,,,,,,,,,,,,,,,,,,,,,,,,,,#F989A2,None,None,None,1500,reading_bl_training_text,29,0,Reading_Baseline_training_click,None,"sich,",,,,,,,,,,,,,,,,,OA01,no,2024-08-22_10h54.07.157,EXNAT_3_training,2024.1.0,2024-08-22 10h54.19.658026 +0200,
,,,,,,0,0,0,0,,,,,,,,,,,,,,,,,,,,,,,,,,,,,#2AB7EF,None,None,None,1500,reading_bl_training_text,30,0,Reading_Baseline_training_click,None,während,,,,,,,,,,,,,,,,,OA01,no,2024-08-22_10h54.07.157,EXNAT_3_training,2024.1.0,2024-08-22 10h54.19.658026 +0200,
,,,,,,0,0,0,0,,,,,,,,,,,,,,,,,,,,,,,,,,,,,#2AB7EF,None,None,None,1500,reading_bl_training_text,31,0,Reading_Baseline_training_click,None,das,,,,,,,,,,,,,,,,,OA01,no,2024-08-22_10h54.07.157,EXNAT_3_training,2024.1.0,2024-08-22 10h54.19.658026 +0200,
,,,,,,0,0,0,0,,,,,,,,,,,,,,,,,,,,,,,,,,,,,#F989A2,None,None,None,1500,reading_bl_training_text,32,0,Reading_Baseline_training_click,None,Orchester,,,,,,,,,,,,,,,,,OA01,no,2024-08-22_10h54.07.157,EXNAT_3_training,2024.1.0,2024-08-22 10h54.19.658026 +0200,
,,,,,,0,0,0,0,,,,,,,,,,,,,,,,,,,,,,,,,,,,,#88BA3F,None,None,None,1500,reading_bl_training_text,33,0,Reading_Baseline_training_click,None,zur,,,,,,,,,,,,,,,,,OA01,no,2024-08-22_10h54.07.157,EXNAT_3_training,2024.1.0,2024-08-22 10h54.19.658026 +0200,
,,,,,,0,0,0,0,,,,,,,,,,,,,,,,,,,,,,,,,,,,,#88BA3F,None,None,None,1500,reading_bl_training_text,34,0,Reading_Baseline_training_click,None,Deckshow,,,,,,,,,,,,,,,,,OA01,no,2024-08-22_10h54.07.157,EXNAT_3_training,2024.1.0,2024-08-22 10h54.19.658026 +0200,
,,,,,,0,0,0,0,,,,,,,,,,,,,,,,,,,,,,,,,,,,,#D292F3,None,None,None,1500,reading_bl_training_text,35,0,Reading_Baseline_training_click,None,aufspielte.,,,,,,,,,,,,,,,,,OA01,no,2024-08-22_10h54.07.157,EXNAT_3_training,2024.1.0,2024-08-22 10h54.19.658026 +0200,
,,,,,,0,0,0,0,,,,,,,,,,,,,,,,,,,,,,,,,,,,,#D292F3,None,None,None,1500,reading_bl_training_text,36,0,Reading_Baseline_training_click,None,Abseits,,,,,,,,,,,,,,,,,OA01,no,2024-08-22_10h54.07.157,EXNAT_3_training,2024.1.0,2024-08-22 10h54.19.658026 +0200,
,,,,,,0,0,0,0,,,,,,,,,,,,,,,,,,,,,,,,,,,,,#D292F3,None,None,None,1500,reading_bl_training_text,37,0,Reading_Baseline_training_click,None,des,,,,,,,,,,,,,,,,,OA01,no,2024-08-22_10h54.07.157,EXNAT_3_training,2024.1.0,2024-08-22 10h54.19.658026 +0200,
,,,,,,0,0,0,0,,,,,,,,,,,,,,,,,,,,,,,,,,,,,#2AB7EF,None,None,None,1166.7580604553223,reading_bl_training_text,38,0,Reading_Baseline_training_click,None,Trubels,,,,,,,,,,,,,,,,,OA01,no,2024-08-22_10h54.07.157,EXNAT_3_training,2024.1.0,2024-08-22 10h54.19.658026 +0200,
,,,,,,0,0,0,0,,,,,,,,,,,,,,,,,,,,,,,,,,,,,#2AB7EF,None,None,None,1500,reading_bl_training_text,39,0,Reading_Baseline_training_click,None,bemerkten,,,,,,,,,,,,,,,,,OA01,no,2024-08-22_10h54.07.157,EXNAT_3_training,2024.1.0,2024-08-22 10h54.19.658026 +0200,
,,,,,,0,0,0,0,,,,,,,,,,,,,,,,,,,,,,,,,,,,,#F989A2,None,None,None,1500,reading_bl_training_text,40,0,Reading_Baseline_training_click,None,wir,,,,,,,,,,,,,,,,,OA01,no,2024-08-22_10h54.07.157,EXNAT_3_training,2024.1.0,2024-08-22 10h54.19.658026 +0200,
,,,,,,0,0,0,0,,,,,,,,,,,,,,,,,,,,,,,,,,,,,#D292F3,None,None,None,1500,reading_bl_training_text,41,0,Reading_Baseline_training_click,None,Blitzlichter:,,,,,,,,,,,,,,,,,OA01,no,2024-08-22_10h54.07.157,EXNAT_3_training,2024.1.0,2024-08-22 10h54.19.658026 +0200,
,,,,,,0,0,0,0,,,,,,,,,,,,,,,,,,,,,,,,,,,,,#F989A2,None,None,None,1500,reading_bl_training_text,42,0,Reading_Baseline_training_click,None,Reporter,,,,,,,,,,,,,,,,,OA01,no,2024-08-22_10h54.07.157,EXNAT_3_training,2024.1.0,2024-08-22 10h54.19.658026 +0200,
,,,,,,0,0,0,0,,,,,,,,,,,,,,,,,,,,,,,,,,,,,#D292F3,None,None,None,1500,reading_bl_training_text,43,0,Reading_Baseline_training_click,None,hatten,,,,,,,,,,,,,,,,,OA01,no,2024-08-22_10h54.07.157,EXNAT_3_training,2024.1.0,2024-08-22 10h54.19.658026 +0200,
,,,,,,0,0,0,0,,,,,,,,,,,,,,,,,,,,,,,,,,,,,#88BA3F,None,None,None,1500,reading_bl_training_text,44,0,Reading_Baseline_training_click,None,den,,,,,,,,,,,,,,,,,OA01,no,2024-08-22_10h54.07.157,EXNAT_3_training,2024.1.0,2024-08-22 10h54.19.658026 +0200,
,,,,,,0,0,0,0,,,,,,,,,,,,,,,,,,,,,,,,,,,,,#F989A2,None,None,None,1500,reading_bl_training_text,45,0,Reading_Baseline_training_click,None,Weltschachmeister,,,,,,,,,,,,,,,,,OA01,no,2024-08-22_10h54.07.157,EXNAT_3_training,2024.1.0,2024-08-22 10h54.19.658026 +0200,
,,,,,,0,0,0,0,,,,,,,,,,,,,,,,,,,,,,,,,,,,,#88BA3F,None,None,None,1500,reading_bl_training_text,46,0,Reading_Baseline_training_click,None,Mirko,,,,,,,,,,,,,,,,,OA01,no,2024-08-22_10h54.07.157,EXNAT_3_training,2024.1.0,2024-08-22 10h54.19.658026 +0200,
,,,,,,0,0,0,0,,,,,,,,,,,,,,,,,,,,,,,,,,,,,#88BA3F,None,None,None,1500,reading_bl_training_text,47,0,Reading_Baseline_training_click,None,"Czentovic,",,,,,,,,,,,,,,,,,OA01,no,2024-08-22_10h54.07.157,EXNAT_3_training,2024.1.0,2024-08-22 10h54.19.658026 +0200,
,,,,,,0,0,0,0,,,,,,,,,,,,,,,,,,,,,,,,,,,,,#2AB7EF,None,None,None,1500,reading_bl_training_text,48,0,Reading_Baseline_training_click,None,der,,,,,,,,,,,,,,,,,OA01,no,2024-08-22_10h54.07.157,EXNAT_3_training,2024.1.0,2024-08-22 10h54.19.658026 +0200,
,,,,,,0,0,0,0,,,,,,,,,,,,,,,,,,,,,,,,,,,,,#2AB7EF,None,None,None,1500,reading_bl_training_text,49,0,Reading_Baseline_training_click,None,nach,,,,,,,,,,,,,,,,,OA01,no,2024-08-22_10h54.07.157,EXNAT_3_training,2024.1.0,2024-08-22 10h54.19.658026 +0200,
,,,,,,0,0,0,0,,,,,,,,,,,,,,,,,,,,,,,,,,,,,#88BA3F,None,None,None,1500,reading_bl_training_text,50,0,Reading_Baseline_training_click,None,Turnieren,,,,,,,,,,,,,,,,,OA01,no,2024-08-22_10h54.07.157,EXNAT_3_training,2024.1.0,2024-08-22 10h54.19.658026 +0200,
,,,,,,0,0,0,0,,,,,,,,,,,,,,,,,,,,,,,,,,,,,#F989A2,None,None,None,1500,reading_bl_training_text,51,0,Reading_Baseline_training_click,None,in,,,,,,,,,,,,,,,,,OA01,no,2024-08-22_10h54.07.157,EXNAT_3_training,2024.1.0,2024-08-22 10h54.19.658026 +0200,
,,,,,,0,0,0,0,,,,,,,,,,,,,,,,,,,,,,,,,,,,,#2AB7EF,None,None,None,1500,reading_bl_training_text,52,0,Reading_Baseline_training_click,None,Amerika,,,,,,,,,,,,,,,,,OA01,no,2024-08-22_10h54.07.157,EXNAT_3_training,2024.1.0,2024-08-22 10h54.19.658026 +0200,
,,,,,,0,0,0,0,,,,,,,,,,,,,,,,,,,,,,,,,,,,,#D292F3,None,None,None,1500,reading_bl_training_text,53,0,Reading_Baseline_training_click,None,nun,,,,,,,,,,,,,,,,,OA01,no,2024-08-22_10h54.07.157,EXNAT_3_training,2024.1.0,2024-08-22 10h54.19.658026 +0200,
,,,,,,0,0,0,0,,,,,,,,,,,,,,,,,,,,,,,,,,,,,#88BA3F,None,None,None,1500,reading_bl_training_text,54,0,Reading_Baseline_training_click,None,nach,,,,,,,,,,,,,,,,,OA01,no,2024-08-22_10h54.07.157,EXNAT_3_training,2024.1.0,2024-08-22 10h54.19.658026 +0200,
,,,,,,0,0,0,0,,,,,,,,,,,,,,,,,,,,,,,,,,,,,#F989A2,None,None,None,1500,reading_bl_training_text,55,0,Reading_Baseline_training_click,None,Argentinien,,,,,,,,,,,,,,,,,OA01,no,2024-08-22_10h54.07.157,EXNAT_3_training,2024.1.0,2024-08-22 10h54.19.658026 +0200,
,,,,,,0,0,0,0,,,,,,,,,,,,,,,,,,,,,,,,,,,,,#F989A2,None,None,None,1500,reading_bl_training_text,56,0,Reading_Baseline_training_click,None,"reiste,",,,,,,,,,,,,,,,,,OA01,no,2024-08-22_10h54.07.157,EXNAT_3_training,2024.1.0,2024-08-22 10h54.19.658026 +0200,
,,,,,,0,0,0,0,,,,,,,,,,,,,,,,,,,,,,,,,,,,,#D292F3,None,None,None,1500,reading_bl_training_text,57,0,Reading_Baseline_training_click,None,für,,,,,,,,,,,,,,,,,OA01,no,2024-08-22_10h54.07.157,EXNAT_3_training,2024.1.0,2024-08-22 10h54.19.658026 +0200,
,,,,,,0,0,0,0,,,,,,,,,,,,,,,,,,,,,,,,,,,,,#2AB7EF,None,None,None,1500,reading_bl_training_text,58,0,Reading_Baseline_training_click,None,ein,,,,,,,,,,,,,,,,,OA01,no,2024-08-22_10h54.07.157,EXNAT_3_training,2024.1.0,2024-08-22 10h54.19.658026 +0200,
,,,,,,0,0,0,0,,,,,,,,,,,,,,,,,,,,,,,,,,,,,#F989A2,None,None,None,1500,reading_bl_training_text,59,0,Reading_Baseline_training_click,None,Interview,,,,,,,,,,,,,,,,,OA01,no,2024-08-22_10h54.07.157,EXNAT_3_training,2024.1.0,2024-08-22 10h54.19.658026 +0200,
,,,,,,0,0,0,0,,,,,,,,,,,,,,,,,,,,,,,,,,,,,#D292F3,None,None,None,1500,reading_bl_training_text,60,0,Reading_Baseline_training_click,None,erwischt.,,,,,,,,,,,,,,,,,OA01,no,2024-08-22_10h54.07.157,EXNAT_3_training,2024.1.0,2024-08-22 10h54.19.658026 +0200,
,,,,,,0,0,0,0,,,,,,,,,,,,,,,,,,,,,,,,,,,,,,,,,,reading_bl_training_text,,,Reading_Baseline_training_click,,,326.40004086494446,Q1,NA,NA,False,1,None,,,,,,,,,,OA01,no,2024-08-22_10h54.07.157,EXNAT_3_training,2024.1.0,2024-08-22 10h54.19.658026 +0200,
,,,,,,0,0,0,0,,,,,,,,,,,,,,,,,,,,,,,,,,,,,,,,,,reading_bl_training_text,,,Reading_Baseline_training_click,,,336.453027009964,Q2,3,c,True,1,None,,,,,,,,,,OA01,no,2024-08-22_10h54.07.157,EXNAT_3_training,2024.1.0,2024-08-22 10h54.19.658026 +0200,
,,,,,,0,0,0,0,,,,,,,,,,,,,,,,,,,,,,,,,,,,,,,,,,reading_bl_training_text,,,Reading_Baseline_training_click,,,342.51720094680786,Q3,1,a,True,1,None,,,,,,,,,,OA01,no,2024-08-22_10h54.07.157,EXNAT_3_training,2024.1.0,2024-08-22 10h54.19.658026 +0200,
,,,,,,0,0,0,0,,,,,,,,,,,,,,,,,,,,,,,,,,,,,,,,,,,,,,,,,,,,,,,347.8247609138489,347.82478189468384,347.8639929294586,347.8640069961548,347.8732798099518,347.8732898235321,347.8903419971466,,,OA01,no,2024-08-22_10h54.07.157,EXNAT_3_training,2024.1.0,2024-08-22 10h54.19.658026 +0200,
,,,,,,1,0,1,0,347.90789890289307,,,,,,,,,,,,,,,,,,,,,,,,,347.89065980911255,347.9079418182373,347.9079489707947,#F989A2,None,None,None,1500,text_02,1,1,Reading_Baseline_main_click,None,In,,,,,,,,,,,,,,,,,OA01,no,2024-08-22_10h54.07.157,EXNAT_3_training,2024.1.0,2024-08-22 10h54.19.658026 +0200,
,,,,,,1,0,1,0,,,,,,,,,,,,,,,,,,,,,,,,,,,,,#2AB7EF,None,None,None,963.7448787689209,text_02,2,1,Reading_Baseline_main_click,None,Tansania,,,,,,,,,,,,,,,,,OA01,no,2024-08-22_10h54.07.157,EXNAT_3_training,2024.1.0,2024-08-22 10h54.19.658026 +0200,
,,,,,,1,0,1,0,,,,,,,,,,,,,,,,,,,,,,,,,,,,,#D292F3,None,None,None,1500,text_02,3,1,Reading_Baseline_main_click,None,haben,,,,,,,,,,,,,,,,,OA01,no,2024-08-22_10h54.07.157,EXNAT_3_training,2024.1.0,2024-08-22 10h54.19.658026 +0200,
,,,,,,1,0,1,0,,,,,,,,,,,,,,,,,,,,,,,,,,,,,#F989A2,None,None,None,180.05895614624023,text_02,4,1,Reading_Baseline_main_click,None,Forscher,,,,,,,,,,,,,,,,,OA01,no,2024-08-22_10h54.07.157,EXNAT_3_training,2024.1.0,2024-08-22 10h54.19.658026 +0200,
,,,,,,1,0,1,0,,,,,,,,,,,,,,,,,,,,,,,,,,,,,#88BA3F,None,None,None,1500,text_02,5,1,Reading_Baseline_main_click,None,Überreste,,,,,,,,,,,,,,,,,OA01,no,2024-08-22_10h54.07.157,EXNAT_3_training,2024.1.0,2024-08-22 10h54.19.658026 +0200,
,,,,,,1,0,1,0,,,,,,,,,,,,,,,,,,,,,,,,,,,,,#88BA3F,None,None,None,1500,text_02,6,1,Reading_Baseline_main_click,None,eines,,,,,,,,,,,,,,,,,OA01,no,2024-08-22_10h54.07.157,EXNAT_3_training,2024.1.0,2024-08-22 10h54.19.658026 +0200,
,,,,,,1,0,1,0,,,,,,,,,,,,,,,,,,,,,,,,,,,,,#88BA3F,None,None,None,1500,text_02,7,1,Reading_Baseline_main_click,None,Urzeit-Krokodils,,,,,,,,,,,,,,,,,OA01,no,2024-08-22_10h54.07.157,EXNAT_3_training,2024.1.0,2024-08-22 10h54.19.658026 +0200,
,,,,,,1,0,1,0,,,,,,,,,,,,,,,,,,,,,,,,,,,,,#2AB7EF,None,None,None,246.9489574432373,text_02,8,1,Reading_Baseline_main_click,None,entdeckt.,,,,,,,,,,,,,,,,,OA01,no,2024-08-22_10h54.07.157,EXNAT_3_training,2024.1.0,2024-08-22 10h54.19.658026 +0200,
,,,,,,1,0,1,0,,,,,,,,,,,,,,,,,,,,,,,,,,,,,#F989A2,None,None,None,1500,text_02,9,1,Reading_Baseline_main_click,None,Es,,,,,,,,,,,,,,,,,OA01,no,2024-08-22_10h54.07.157,EXNAT_3_training,2024.1.0,2024-08-22 10h54.19.658026 +0200,
,,,,,,1,0,1,0,,,,,,,,,,,,,,,,,,,,,,,,,,,,,#2AB7EF,None,None,None,599.1671085357666,text_02,10,1,Reading_Baseline_main_click,None,zeigt,,,,,,,,,,,,,,,,,OA01,no,2024-08-22_10h54.07.157,EXNAT_3_training,2024.1.0,2024-08-22 10h54.19.658026 +0200,
,,,,,,1,0,1,0,,,,,,,,,,,,,,,,,,,,,,,,,,,,,#D292F3,None,None,None,1500,text_02,11,1,Reading_Baseline_main_click,None,Ähnlichkeiten,,,,,,,,,,,,,,,,,OA01,no,2024-08-22_10h54.07.157,EXNAT_3_training,2024.1.0,2024-08-22 10h54.19.658026 +0200,
,,,,,,1,0,1,0,,,,,,,,,,,,,,,,,,,,,,,,,,,,,#88BA3F,None,None,None,1500,text_02,12,1,Reading_Baseline_main_click,None,zu,,,,,,,,,,,,,,,,,OA01,no,2024-08-22_10h54.07.157,EXNAT_3_training,2024.1.0,2024-08-22 10h54.19.658026 +0200,
,,,,,,1,0,1,0,,,,,,,,,,,,,,,,,,,,,,,,,,,,,#F989A2,None,None,None,1500,text_02,13,1,Reading_Baseline_main_click,None,Säugetieren.,,,,,,,,,,,,,,,,,OA01,no,2024-08-22_10h54.07.157,EXNAT_3_training,2024.1.0,2024-08-22 10h54.19.658026 +0200,
,,,,,,1,0,1,0,,,,,,,,,,,,,,,,,,,,,,,,,,,,,#2AB7EF,None,None,None,1500,text_02,14,1,Reading_Baseline_main_click,None,Es,,,,,,,,,,,,,,,,,OA01,no,2024-08-22_10h54.07.157,EXNAT_3_training,2024.1.0,2024-08-22 10h54.19.658026 +0200,
,,,,,,1,0,1,0,,,,,,,,,,,,,,,,,,,,,,,,,,,,,#F989A2,None,None,None,815.126895904541,text_02,15,1,Reading_Baseline_main_click,None,war,,,,,,,,,,,,,,,,,OA01,no,2024-08-22_10h54.07.157,EXNAT_3_training,2024.1.0,2024-08-22 10h54.19.658026 +0200,
,,,,,,1,0,1,0,,,,,,,,,,,,,,,,,,,,,,,,,,,,,#2AB7EF,None,None,None,747.9588985443115,text_02,16,1,Reading_Baseline_main_click,None,so,,,,,,,,,,,,,,,,,OA01,no,2024-08-22_10h54.07.157,EXNAT_3_training,2024.1.0,2024-08-22 10h54.19.658026 +0200,
,,,,,,1,0,1,0,,,,,,,,,,,,,,,,,,,,,,,,,,,,,#2AB7EF,None,None,None,799.0000247955322,text_02,17,1,Reading_Baseline_main_click,None,groß,,,,,,,,,,,,,,,,,OA01,no,2024-08-22_10h54.07.157,EXNAT_3_training,2024.1.0,2024-08-22 10h54.19.658026 +0200,
,,,,,,1,0,1,0,,,,,,,,,,,,,,,,,,,,,,,,,,,,,#88BA3F,None,None,None,1500,text_02,18,1,Reading_Baseline_main_click,None,wie,,,,,,,,,,,,,,,,,OA01,no,2024-08-22_10h54.07.157,EXNAT_3_training,2024.1.0,2024-08-22 10h54.19.658026 +0200,
,,,,,,1,0,1,0,,,,,,,,,,,,,,,,,,,,,,,,,,,,,#D292F3,None,None,None,649.381160736084,text_02,19,1,Reading_Baseline_main_click,None,eine,,,,,,,,,,,,,,,,,OA01,no,2024-08-22_10h54.07.157,EXNAT_3_training,2024.1.0,2024-08-22 10h54.19.658026 +0200,
,,,,,,1,0,1,0,,,,,,,,,,,,,,,,,,,,,,,,,,,,,#F989A2,None,None,None,1015.6500339508057,text_02,20,1,Reading_Baseline_main_click,None,Katze.,,,,,,,,,,,,,,,,,OA01,no,2024-08-22_10h54.07.157,EXNAT_3_training,2024.1.0,2024-08-22 10h54.19.658026 +0200,
,,,,,,1,0,1,0,,,,,,,,,,,,,,,,,,,,,,,,,,,,,#88BA3F,None,None,None,1500,text_02,21,1,Reading_Baseline_main_click,None,Das,,,,,,,,,,,,,,,,,OA01,no,2024-08-22_10h54.07.157,EXNAT_3_training,2024.1.0,2024-08-22 10h54.19.658026 +0200,
,,,,,,1,0,1,0,,,,,,,,,,,,,,,,,,,,,,,,,,,,,#F989A2,None,None,None,732.1438789367676,text_02,22,1,Reading_Baseline_main_click,None,Tier,,,,,,,,,,,,,,,,,OA01,no,2024-08-22_10h54.07.157,EXNAT_3_training,2024.1.0,2024-08-22 10h54.19.658026 +0200,
,,,,,,1,0,1,0,,,,,,,,,,,,,,,,,,,,,,,,,,,,,#88BA3F,None,None,None,1117.2280311584473,text_02,23,1,Reading_Baseline_main_click,None,lebte,,,,,,,,,,,,,,,,,OA01,no,2024-08-22_10h54.07.157,EXNAT_3_training,2024.1.0,2024-08-22 10h54.19.658026 +0200,
,,,,,,1,0,1,0,,,,,,,,,,,,,,,,,,,,,,,,,,,,,#D292F3,None,None,None,1500,text_02,24,1,Reading_Baseline_main_click,None,vor,,,,,,,,,,,,,,,,,OA01,no,2024-08-22_10h54.07.157,EXNAT_3_training,2024.1.0,2024-08-22 10h54.19.658026 +0200,
,,,,,,1,0,1,0,,,,,,,,,,,,,,,,,,,,,,,,,,,,,#2AB7EF,None,None,None,949.6190547943115,text_02,25,1,Reading_Baseline_main_click,None,etwa,,,,,,,,,,,,,,,,,OA01,no,2024-08-22_10h54.07.157,EXNAT_3_training,2024.1.0,2024-08-22 10h54.19.658026 +0200,
,,,,,,1,0,1,0,,,,,,,,,,,,,,,,,,,,,,,,,,,,,#D292F3,None,None,None,1500,text_02,26,1,Reading_Baseline_main_click,None,105,,,,,,,,,,,,,,,,,OA01,no,2024-08-22_10h54.07.157,EXNAT_3_training,2024.1.0,2024-08-22 10h54.19.658026 +0200,
,,,,,,1,0,1,0,,,,,,,,,,,,,,,,,,,,,,,,,,,,,#2AB7EF,None,None,None,648.9958763122559,text_02,27,1,Reading_Baseline_main_click,None,Millionen,,,,,,,,,,,,,,,,,OA01,no,2024-08-22_10h54.07.157,EXNAT_3_training,2024.1.0,2024-08-22 10h54.19.658026 +0200,
,,,,,,1,0,1,0,,,,,,,,,,,,,,,,,,,,,,,,,,,,,#D292F3,None,None,None,1116.1730289459229,text_02,28,1,Reading_Baseline_main_click,None,Jahren,,,,,,,,,,,,,,,,,OA01,no,2024-08-22_10h54.07.157,EXNAT_3_training,2024.1.0,2024-08-22 10h54.19.658026 +0200,
,,,,,,1,0,1,0,,,,,,,,,,,,,,,,,,,,,,,,,,,,,#88BA3F,None,None,None,1500,text_02,29,1,Reading_Baseline_main_click,None,und,,,,,,,,,,,,,,,,,OA01,no,2024-08-22_10h54.07.157,EXNAT_3_training,2024.1.0,2024-08-22 10h54.19.658026 +0200,
,,,,,,1,0,1,0,,,,,,,,,,,,,,,,,,,,,,,,,,,,,#F989A2,None,None,None,832.3309421539307,text_02,30,1,Reading_Baseline_main_click,None,jagte,,,,,,,,,,,,,,,,,OA01,no,2024-08-22_10h54.07.157,EXNAT_3_training,2024.1.0,2024-08-22 10h54.19.658026 +0200,
,,,,,,1,0,1,0,,,,,,,,,,,,,,,,,,,,,,,,,,,,,#F989A2,None,None,None,1500,text_02,31,1,Reading_Baseline_main_click,None,an,,,,,,,,,,,,,,,,,OA01,no,2024-08-22_10h54.07.157,EXNAT_3_training,2024.1.0,2024-08-22 10h54.19.658026 +0200,
,,,,,,1,0,1,0,,,,,,,,,,,,,,,,,,,,,,,,,,,,,#2AB7EF,None,None,None,699.3420124053955,text_02,32,1,Reading_Baseline_main_click,None,Land,,,,,,,,,,,,,,,,,OA01,no,2024-08-22_10h54.07.157,EXNAT_3_training,2024.1.0,2024-08-22 10h54.19.658026 +0200,
,,,,,,1,0,1,0,,,,,,,,,,,,,,,,,,,,,,,,,,,,,#88BA3F,None,None,None,1350.600004196167,text_02,33,1,Reading_Baseline_main_click,None,nach,,,,,,,,,,,,,,,,,OA01,no,2024-08-22_10h54.07.157,EXNAT_3_training,2024.1.0,2024-08-22 10h54.19.658026 +0200,
,,,,,,1,0,1,0,,,,,,,,,,,,,,,,,,,,,,,,,,,,,#88BA3F,None,None,None,1500,text_02,34,1,Reading_Baseline_main_click,None,Insekten,,,,,,,,,,,,,,,,,OA01,no,2024-08-22_10h54.07.157,EXNAT_3_training,2024.1.0,2024-08-22 10h54.19.658026 +0200,
,,,,,,1,0,1,0,,,,,,,,,,,,,,,,,,,,,,,,,,,,,#F989A2,None,None,None,766.1762237548828,text_02,35,1,Reading_Baseline_main_click,None,und,,,,,,,,,,,,,,,,,OA01,no,2024-08-22_10h54.07.157,EXNAT_3_training,2024.1.0,2024-08-22 10h54.19.658026 +0200,
,,,,,,1,0,1,0,,,,,,,,,,,,,,,,,,,,,,,,,,,,,#D292F3,None,None,None,1500,text_02,36,1,Reading_Baseline_main_click,None,kleinen,,,,,,,,,,,,,,,,,OA01,no,2024-08-22_10h54.07.157,EXNAT_3_training,2024.1.0,2024-08-22 10h54.19.658026 +0200,
,,,,,,1,0,1,0,,,,,,,,,,,,,,,,,,,,,,,,,,,,,#F989A2,None,None,None,732.5060367584229,text_02,37,1,Reading_Baseline_main_click,None,Tieren.,,,,,,,,,,,,,,,,,OA01,no,2024-08-22_10h54.07.157,EXNAT_3_training,2024.1.0,2024-08-22 10h54.19.658026 +0200,
,,,,,,1,0,1,0,,,,,,,,,,,,,,,,,,,,,,,,,,,,,#D292F3,None,None,None,1500,text_02,38,1,Reading_Baseline_main_click,None,Es,,,,,,,,,,,,,,,,,OA01,no,2024-08-22_10h54.07.157,EXNAT_3_training,2024.1.0,2024-08-22 10h54.19.658026 +0200,
,,,,,,1,0,1,0,,,,,,,,,,,,,,,,,,,,,,,,,,,,,#D292F3,None,None,None,932.2960376739502,text_02,39,1,Reading_Baseline_main_click,None,besaß,,,,,,,,,,,,,,,,,OA01,no,2024-08-22_10h54.07.157,EXNAT_3_training,2024.1.0,2024-08-22 10h54.19.658026 +0200,
,,,,,,1,0,1,0,,,,,,,,,,,,,,,,,,,,,,,,,,,,,#2AB7EF,None,None,None,1500,text_02,40,1,Reading_Baseline_main_click,None,ungewöhnliche,,,,,,,,,,,,,,,,,OA01,no,2024-08-22_10h54.07.157,EXNAT_3_training,2024.1.0,2024-08-22 10h54.19.658026 +0200,
,,,,,,1,0,1,0,,,,,,,,,,,,,,,,,,,,,,,,,,,,,#F989A2,None,None,None,597.1808433532715,text_02,41,1,Reading_Baseline_main_click,None,"Merkmale,",,,,,,,,,,,,,,,,,OA01,no,2024-08-22_10h54.07.157,EXNAT_3_training,2024.1.0,2024-08-22 10h54.19.658026 +0200,
,,,,,,1,0,1,0,,,,,,,,,,,,,,,,,,,,,,,,,,,,,#F989A2,None,None,None,1500,text_02,42,1,Reading_Baseline_main_click,None,wie,,,,,,,,,,,,,,,,,OA01,no,2024-08-22_10h54.07.157,EXNAT_3_training,2024.1.0,2024-08-22 10h54.19.658026 +0200,
,,,,,,1,0,1,0,,,,,,,,,,,,,,,,,,,,,,,,,,,,,#2AB7EF,None,None,None,531.5918922424316,text_02,43,1,Reading_Baseline_main_click,None,weniger,,,,,,,,,,,,,,,,,OA01,no,2024-08-22_10h54.07.157,EXNAT_3_training,2024.1.0,2024-08-22 10h54.19.658026 +0200,
,,,,,,1,0,1,0,,,,,,,,,,,,,,,,,,,,,,,,,,,,,#88BA3F,None,None,None,1500,text_02,44,1,Reading_Baseline_main_click,None,Zähne,,,,,,,,,,,,,,,,,OA01,no,2024-08-22_10h54.07.157,EXNAT_3_training,2024.1.0,2024-08-22 10h54.19.658026 +0200,
,,,,,,1,0,1,0,,,,,,,,,,,,,,,,,,,,,,,,,,,,,#88BA3F,None,None,None,615.1580810546875,text_02,45,1,Reading_Baseline_main_click,None,und,,,,,,,,,,,,,,,,,OA01,no,2024-08-22_10h54.07.157,EXNAT_3_training,2024.1.0,2024-08-22 10h54.19.658026 +0200,
,,,,,,1,0,1,0,,,,,,,,,,,,,,,,,,,,,,,,,,,,,#2AB7EF,None,None,None,1500,text_02,46,1,Reading_Baseline_main_click,None,hatte,,,,,,,,,,,,,,,,,OA01,no,2024-08-22_10h54.07.157,EXNAT_3_training,2024.1.0,2024-08-22 10h54.19.658026 +0200,
,,,,,,1,0,1,0,,,,,,,,,,,,,,,,,,,,,,,,,,,,,#D292F3,None,None,None,297.9259490966797,text_02,47,1,Reading_Baseline_main_click,None,Backenzähne,,,,,,,,,,,,,,,,,OA01,no,2024-08-22_10h54.07.157,EXNAT_3_training,2024.1.0,2024-08-22 10h54.19.658026 +0200,
,,,,,,1,0,1,0,,,,,,,,,,,,,,,,,,,,,,,,,,,,,#88BA3F,None,None,None,1500,text_02,48,1,Reading_Baseline_main_click,None,zum,,,,,,,,,,,,,,,,,OA01,no,2024-08-22_10h54.07.157,EXNAT_3_training,2024.1.0,2024-08-22 10h54.19.658026 +0200,
,,,,,,1,0,1,0,,,,,,,,,,,,,,,,,,,,,,,,,,,,,#F989A2,None,None,None,1066.659927368164,text_02,49,1,Reading_Baseline_main_click,None,Kauen,,,,,,,,,,,,,,,,,OA01,no,2024-08-22_10h54.07.157,EXNAT_3_training,2024.1.0,2024-08-22 10h54.19.658026 +0200,
,,,,,,1,0,1,0,,,,,,,,,,,,,,,,,,,,,,,,,,,,,#88BA3F,None,None,None,1500,text_02,50,1,Reading_Baseline_main_click,None,von,,,,,,,,,,,,,,,,,OA01,no,2024-08-22_10h54.07.157,EXNAT_3_training,2024.1.0,2024-08-22 10h54.19.658026 +0200,
,,,,,,1,0,1,0,,,,,,,,,,,,,,,,,,,,,,,,,,,,,#F989A2,None,None,None,96.25005722045898,text_02,51,1,Reading_Baseline_main_click,None,Nahrung.,,,,,,,,,,,,,,,,,OA01,no,2024-08-22_10h54.07.157,EXNAT_3_training,2024.1.0,2024-08-22 10h54.19.658026 +0200,
,,,,,,1,0,1,0,,,,,,,,,,,,,,,,,,,,,,,,,,,,,#F989A2,None,None,None,1500,text_02,52,1,Reading_Baseline_main_click,None,Außerdem,,,,,,,,,,,,,,,,,OA01,no,2024-08-22_10h54.07.157,EXNAT_3_training,2024.1.0,2024-08-22 10h54.19.658026 +0200,
,,,,,,1,0,1,0,,,,,,,,,,,,,,,,,,,,,,,,,,,,,#D292F3,None,None,None,1251.6279220581055,text_02,53,1,Reading_Baseline_main_click,None,war,,,,,,,,,,,,,,,,,OA01,no,2024-08-22_10h54.07.157,EXNAT_3_training,2024.1.0,2024-08-22 10h54.19.658026 +0200,
,,,,,,1,0,1,0,,,,,,,,,,,,,,,,,,,,,,,,,,,,,#D292F3,None,None,None,1500,text_02,54,1,Reading_Baseline_main_click,None,es,,,,,,,,,,,,,,,,,OA01,no,2024-08-22_10h54.07.157,EXNAT_3_training,2024.1.0,2024-08-22 10h54.19.658026 +0200,
,,,,,,1,0,1,0,,,,,,,,,,,,,,,,,,,,,,,,,,,,,#2AB7EF,None,None,None,832.6141834259033,text_02,55,1,Reading_Baseline_main_click,None,weniger,,,,,,,,,,,,,,,,,OA01,no,2024-08-22_10h54.07.157,EXNAT_3_training,2024.1.0,2024-08-22 10h54.19.658026 +0200,
,,,,,,1,0,1,0,,,,,,,,,,,,,,,,,,,,,,,,,,,,,#2AB7EF,None,None,None,1399.933099746704,text_02,56,1,Reading_Baseline_main_click,None,gepanzert.,,,,,,,,,,,,,,,,,OA01,no,2024-08-22_10h54.07.157,EXNAT_3_training,2024.1.0,2024-08-22 10h54.19.658026 +0200,
,,,,,,1,0,1,0,,,,,,,,,,,,,,,,,,,,,,,,,,,,,#88BA3F,None,None,None,1500,text_02,57,1,Reading_Baseline_main_click,None,Die,,,,,,,,,,,,,,,,,OA01,no,2024-08-22_10h54.07.157,EXNAT_3_training,2024.1.0,2024-08-22 10h54.19.658026 +0200,
,,,,,,1,0,1,0,,,,,,,,,,,,,,,,,,,,,,,,,,,,,#D292F3,None,None,None,699.1860866546631,text_02,58,1,Reading_Baseline_main_click,None,Forscher,,,,,,,,,,,,,,,,,OA01,no,2024-08-22_10h54.07.157,EXNAT_3_training,2024.1.0,2024-08-22 10h54.19.658026 +0200,
,,,,,,1,0,1,0,,,,,,,,,,,,,,,,,,,,,,,,,,,,,#88BA3F,None,None,None,982.9189777374268,text_02,59,1,Reading_Baseline_main_click,None,"denken,",,,,,,,,,,,,,,,,,OA01,no,2024-08-22_10h54.07.157,EXNAT_3_training,2024.1.0,2024-08-22 10h54.19.658026 +0200,
,,,,,,1,0,1,0,,,,,,,,,,,,,,,,,,,,,,,,,,,,,#2AB7EF,None,None,None,1500,text_02,60,1,Reading_Baseline_main_click,None,dass,,,,,,,,,,,,,,,,,OA01,no,2024-08-22_10h54.07.157,EXNAT_3_training,2024.1.0,2024-08-22 10h54.19.658026 +0200,
,,,,,,1,0,1,0,,,,,,,,,,,,,,,,,,,,,,,,,,,,,#D292F3,None,None,None,1099.4319915771484,text_02,61,1,Reading_Baseline_main_click,None,Krokodile,,,,,,,,,,,,,,,,,OA01,no,2024-08-22_10h54.07.157,EXNAT_3_training,2024.1.0,2024-08-22 10h54.19.658026 +0200,
,,,,,,1,0,1,0,,,,,,,,,,,,,,,,,,,,,,,,,,,,,#88BA3F,None,None,None,1500,text_02,62,1,Reading_Baseline_main_click,None,in,,,,,,,,,,,,,,,,,OA01,no,2024-08-22_10h54.07.157,EXNAT_3_training,2024.1.0,2024-08-22 10h54.19.658026 +0200,
,,,,,,1,0,1,0,,,,,,,,,,,,,,,,,,,,,,,,,,,,,#2AB7EF,None,None,None,1500,text_02,63,1,Reading_Baseline_main_click,None,der,,,,,,,,,,,,,,,,,OA01,no,2024-08-22_10h54.07.157,EXNAT_3_training,2024.1.0,2024-08-22 10h54.19.658026 +0200,
,,,,,,1,0,1,0,,,,,,,,,,,,,,,,,,,,,,,,,,,,,#D292F3,None,None,None,665.6069755554199,text_02,64,1,Reading_Baseline_main_click,None,Vergangenheit,,,,,,,,,,,,,,,,,OA01,no,2024-08-22_10h54.07.157,EXNAT_3_training,2024.1.0,2024-08-22 10h54.19.658026 +0200,
,,,,,,1,0,1,0,,,,,,,,,,,,,,,,,,,,,,,,,,,,,#88BA3F,None,None,None,1500,text_02,65,1,Reading_Baseline_main_click,None,auf,,,,,,,,,,,,,,,,,OA01,no,2024-08-22_10h54.07.157,EXNAT_3_training,2024.1.0,2024-08-22 10h54.19.658026 +0200,
,,,,,,1,0,1,0,,,,,,,,,,,,,,,,,,,,,,,,,,,,,#D292F3,None,None,None,816.411018371582,text_02,66,1,Reading_Baseline_main_click,None,der,,,,,,,,,,,,,,,,,OA01,no,2024-08-22_10h54.07.157,EXNAT_3_training,2024.1.0,2024-08-22 10h54.19.658026 +0200,
,,,,,,1,0,1,0,,,,,,,,,,,,,,,,,,,,,,,,,,,,,#F989A2,None,None,None,1500,text_02,67,1,Reading_Baseline_main_click,None,Südhalbkugel,,,,,,,,,,,,,,,,,OA01,no,2024-08-22_10h54.07.157,EXNAT_3_training,2024.1.0,2024-08-22 10h54.19.658026 +0200,
,,,,,,1,0,1,0,,,,,,,,,,,,,,,,,,,,,,,,,,,,,#D292F3,None,None,None,699.7900009155273,text_02,68,1,Reading_Baseline_main_click,None,"lebten,",,,,,,,,,,,,,,,,,OA01,no,2024-08-22_10h54.07.157,EXNAT_3_training,2024.1.0,2024-08-22 10h54.19.658026 +0200,
,,,,,,1,0,1,0,,,,,,,,,,,,,,,,,,,,,,,,,,,,,#88BA3F,None,None,None,1500,text_02,69,1,Reading_Baseline_main_click,None,während,,,,,,,,,,,,,,,,,OA01,no,2024-08-22_10h54.07.157,EXNAT_3_training,2024.1.0,2024-08-22 10h54.19.658026 +0200,
,,,,,,1,0,1,0,,,,,,,,,,,,,,,,,,,,,,,,,,,,,#2AB7EF,None,None,None,633.0740451812744,text_02,70,1,Reading_Baseline_main_click,None,sich,,,,,,,,,,,,,,,,,OA01,no,2024-08-22_10h54.07.157,EXNAT_3_training,2024.1.0,2024-08-22 10h54.19.658026 +0200,
,,,,,,1,0,1,0,,,,,,,,,,,,,,,,,,,,,,,,,,,,,#F989A2,None,None,None,1500,text_02,71,1,Reading_Baseline_main_click,None,Säugetiere,,,,,,,,,,,,,,,,,OA01,no,2024-08-22_10h54.07.157,EXNAT_3_training,2024.1.0,2024-08-22 10h54.19.658026 +0200,
,,,,,,1,0,1,0,,,,,,,,,,,,,,,,,,,,,,,,,,,,,#2AB7EF,None,None,None,715.8610820770264,text_02,72,1,Reading_Baseline_main_click,None,auf,,,,,,,,,,,,,,,,,OA01,no,2024-08-22_10h54.07.157,EXNAT_3_training,2024.1.0,2024-08-22 10h54.19.658026 +0200,
,,,,,,1,0,1,0,,,,,,,,,,,,,,,,,,,,,,,,,,,,,#D292F3,None,None,None,1500,text_02,73,1,Reading_Baseline_main_click,None,der,,,,,,,,,,,,,,,,,OA01,no,2024-08-22_10h54.07.157,EXNAT_3_training,2024.1.0,2024-08-22 10h54.19.658026 +0200,
,,,,,,1,0,1,0,,,,,,,,,,,,,,,,,,,,,,,,,,,,,#F989A2,None,None,None,715.5678272247314,text_02,74,1,Reading_Baseline_main_click,None,Nordhalbkugel,,,,,,,,,,,,,,,,,OA01,no,2024-08-22_10h54.07.157,EXNAT_3_training,2024.1.0,2024-08-22 10h54.19.658026 +0200,
,,,,,,1,0,1,0,,,,,,,,,,,,,,,,,,,,,,,,,,,,,#88BA3F,None,None,None,1500,text_02,75,1,Reading_Baseline_main_click,None,ausbreiteten.,,,,,,,,,,,,,,,,,OA01,no,2024-08-22_10h54.07.157,EXNAT_3_training,2024.1.0,2024-08-22 10h54.19.658026 +0200,
,,,,,,1,0,1,0,,,,,,,,,,,,,,,,,,,,,,,,,,,,,#88BA3F,None,None,None,698.3201503753662,text_02,76,1,Reading_Baseline_main_click,None,Die,,,,,,,,,,,,,,,,,OA01,no,2024-08-22_10h54.07.157,EXNAT_3_training,2024.1.0,2024-08-22 10h54.19.658026 +0200,
,,,,,,1,0,1,0,,,,,,,,,,,,,,,,,,,,,,,,,,,,,#2AB7EF,None,None,None,1500,text_02,77,1,Reading_Baseline_main_click,None,Forscher,,,,,,,,,,,,,,,,,OA01,no,2024-08-22_10h54.07.157,EXNAT_3_training,2024.1.0,2024-08-22 10h54.19.658026 +0200,
,,,,,,1,0,1,0,,,,,,,,,,,,,,,,,,,,,,,,,,,,,#2AB7EF,None,None,None,81.66694641113281,text_02,78,1,Reading_Baseline_main_click,None,werden,,,,,,,,,,,,,,,,,OA01,no,2024-08-22_10h54.07.157,EXNAT_3_training,2024.1.0,2024-08-22 10h54.19.658026 +0200,
,,,,,,1,0,1,0,,,,,,,,,,,,,,,,,,,,,,,,,,,,,#F989A2,None,None,None,1500,text_02,79,1,Reading_Baseline_main_click,None,in,,,,,,,,,,,,,,,,,OA01,no,2024-08-22_10h54.07.157,EXNAT_3_training,2024.1.0,2024-08-22 10h54.19.658026 +0200,
,,,,,,1,0,1,0,,,,,,,,,,,,,,,,,,,,,,,,,,,,,#D292F3,None,None,None,1500,text_02,80,1,Reading_Baseline_main_click,None,Zukunft,,,,,,,,,,,,,,,,,OA01,no,2024-08-22_10h54.07.157,EXNAT_3_training,2024.1.0,2024-08-22 10h54.19.658026 +0200,
,,,,,,1,0,1,0,,,,,,,,,,,,,,,,,,,,,,,,,,,,,#2AB7EF,None,None,None,815.8700466156006,text_02,81,1,Reading_Baseline_main_click,None,versuchen,,,,,,,,,,,,,,,,,OA01,no,2024-08-22_10h54.07.157,EXNAT_3_training,2024.1.0,2024-08-22 10h54.19.658026 +0200,
,,,,,,1,0,1,0,,,,,,,,,,,,,,,,,,,,,,,,,,,,,#88BA3F,None,None,None,1166.801929473877,text_02,82,1,Reading_Baseline_main_click,None,mehr,,,,,,,,,,,,,,,,,OA01,no,2024-08-22_10h54.07.157,EXNAT_3_training,2024.1.0,2024-08-22 10h54.19.658026 +0200,
,,,,,,1,0,1,0,,,,,,,,,,,,,,,,,,,,,,,,,,,,,#D292F3,None,None,None,882.1909427642822,text_02,83,1,Reading_Baseline_main_click,None,über,,,,,,,,,,,,,,,,,OA01,no,2024-08-22_10h54.07.157,EXNAT_3_training,2024.1.0,2024-08-22 10h54.19.658026 +0200,
,,,,,,1,0,1,0,,,,,,,,,,,,,,,,,,,,,,,,,,,,,#D292F3,None,None,None,1500,text_02,84,1,Reading_Baseline_main_click,None,die,,,,,,,,,,,,,,,,,OA01,no,2024-08-22_10h54.07.157,EXNAT_3_training,2024.1.0,2024-08-22 10h54.19.658026 +0200,
,,,,,,1,0,1,0,,,,,,,,,,,,,,,,,,,,,,,,,,,,,#D292F3,None,None,None,699.0160942077637,text_02,85,1,Reading_Baseline_main_click,None,frühe,,,,,,,,,,,,,,,,,OA01,no,2024-08-22_10h54.07.157,EXNAT_3_training,2024.1.0,2024-08-22 10h54.19.658026 +0200,
,,,,,,1,0,1,0,,,,,,,,,,,,,,,,,,,,,,,,,,,,,#2AB7EF,None,None,None,1500,text_02,86,1,Reading_Baseline_main_click,None,Tierwelt,,,,,,,,,,,,,,,,,OA01,no,2024-08-22_10h54.07.157,EXNAT_3_training,2024.1.0,2024-08-22 10h54.19.658026 +0200,
,,,,,,1,0,1,0,,,,,,,,,,,,,,,,,,,,,,,,,,,,,#88BA3F,None,None,None,1500,text_02,87,1,Reading_Baseline_main_click,None,auf,,,,,,,,,,,,,,,,,OA01,no,2024-08-22_10h54.07.157,EXNAT_3_training,2024.1.0,2024-08-22 10h54.19.658026 +0200,
,,,,,,1,0,1,0,,,,,,,,,,,,,,,,,,,,,,,,,,,,,#F989A2,None,None,None,1500,text_02,88,1,Reading_Baseline_main_click,None,der,,,,,,,,,,,,,,,,,OA01,no,2024-08-22_10h54.07.157,EXNAT_3_training,2024.1.0,2024-08-22 10h54.19.658026 +0200,
,,,,,,1,0,1,0,,,,,,,,,,,,,,,,,,,,,,,,,,,,,#D292F3,None,None,None,831.9787979125977,text_02,89,1,Reading_Baseline_main_click,None,Südhalbkugel,,,,,,,,,,,,,,,,,OA01,no,2024-08-22_10h54.07.157,EXNAT_3_training,2024.1.0,2024-08-22 10h54.19.658026 +0200,
,,,,,,1,0,1,0,,,,,,,,,,,,,,,,,,,,,,,,,,,,,#88BA3F,None,None,None,1500,text_02,90,1,Reading_Baseline_main_click,None,zu,,,,,,,,,,,,,,,,,OA01,no,2024-08-22_10h54.07.157,EXNAT_3_training,2024.1.0,2024-08-22 10h54.19.658026 +0200,
,,,,,,1,0,1,0,,,,,,,,,,,,,,,,,,,,,,,,,,,,,#F989A2,None,None,None,548.6700534820557,text_02,91,1,Reading_Baseline_main_click,None,erfahren.,,,,,,,,,,,,,,,,,OA01,no,2024-08-22_10h54.07.157,EXNAT_3_training,2024.1.0,2024-08-22 10h54.19.658026 +0200,
,,,,,,1,0,1,0,,,,,,,,,,,,,,,,,,,,,,,,,,,,,,,,,,text_02,,,Reading_Baseline_main_click,,,488.0226240158081,Q1,NA,NA,False,2,None,,,,,,,,,,OA01,no,2024-08-22_10h54.07.157,EXNAT_3_training,2024.1.0,2024-08-22 10h54.19.658026 +0200,
,,,,,,1,0,1,0,,,,,,,,,,,,,,,,,,,,,,,,,,,,,,,,,,text_02,,,Reading_Baseline_main_click,,,498.0673990249634,Q2,3,c,False,2,None,,,,,,,,,,OA01,no,2024-08-22_10h54.07.157,EXNAT_3_training,2024.1.0,2024-08-22 10h54.19.658026 +0200,
,,,,,,1,0,1,0,,,,,,,,,,,,,,,,,,,,,,,,,,,,,,,,,,text_02,,,Reading_Baseline_main_click,,,500.0314450263977,Q3,2,b,True,2,None,,,,,,,,,,OA01,no,2024-08-22_10h54.07.157,EXNAT_3_training,2024.1.0,2024-08-22 10h54.19.658026 +0200,
,,,,,,1,0,1,0,,,,,,,,,,,,,,,,,,,,,,,,,,,,,,,,,,,,,,,,,,,,,,,508.1038088798523,508.1038589477539,508.14411997795105,508.14413189888,508.15365982055664,508.15366983413696,508.1701879501343,,,OA01,no,2024-08-22_10h54.07.157,EXNAT_3_training,2024.1.0,2024-08-22 10h54.19.658026 +0200,
,,,,,,2,0,2,0,508.186980009079,,,,,,,,,,,,,,,,,,,,,,,,,508.1705288887024,,,#2AB7EF,True,hit,1470.9160327911377,1500,,1,2,0back_single_training,0,,,,,,,,,,,,,,,,#2AB7EF,,OA01,no,2024-08-22_10h54.07.157,EXNAT_3_training,2024.1.0,2024-08-22 10h54.19.658026 +0200,
,,,,,,2,0,2,0,,,,,,,,,,,,,,,,,,,,,,,,,,,,,#2AB7EF,True,hit,1183.765172958374,1500,,2,2,0back_single_training,0,,,,,,,,,,,,,,,,#2AB7EF,,OA01,no,2024-08-22_10h54.07.157,EXNAT_3_training,2024.1.0,2024-08-22 10h54.19.658026 +0200,
,,,,,,2,0,2,0,,,,,,,,,,,,,,,,,,,,,,,,,,,,,#F989A2,False,false alarm,684.3879222869873,1500,,3,2,0back_single_training,0,,,,,,,,,,,,,,,,#2AB7EF,,OA01,no,2024-08-22_10h54.07.157,EXNAT_3_training,2024.1.0,2024-08-22 10h54.19.658026 +0200,
,,,,,,2,0,2,0,,,,,,,,,,,,,,,,,,,,,,,,,,,,,#D292F3,False,correct rejection,None,1500,,4,2,0back_single_training,0,,,,,,,,,,,,,,,,#2AB7EF,,OA01,no,2024-08-22_10h54.07.157,EXNAT_3_training,2024.1.0,2024-08-22 10h54.19.658026 +0200,
,,,,,,2,0,2,0,,,,,,,,,,,,,,,,,,,,,,,,,,,,,#D292F3,False,correct rejection,None,817.4359798431396,,5,2,0back_single_training,0,,,,,,,,,,,,,,,,#2AB7EF,,OA01,no,2024-08-22_10h54.07.157,EXNAT_3_training,2024.1.0,2024-08-22 10h54.19.658026 +0200,
,,,,,,2,0,2,0,,,,,,,,,,,,,,,,,,,,,,,,,,,,,#D292F3,False,correct rejection,None,450.55198669433594,,6,2,0back_single_training,0,,,,,,,,,,,,,,,,#2AB7EF,,OA01,no,2024-08-22_10h54.07.157,EXNAT_3_training,2024.1.0,2024-08-22 10h54.19.658026 +0200,
,,,,,,2,0,2,0,,,,,,,,,,,,,,,,,,,,,,,,,,,,,#88BA3F,False,correct rejection,None,850.8400917053223,,7,2,0back_single_training,0,,,,,,,,,,,,,,,,#2AB7EF,,OA01,no,2024-08-22_10h54.07.157,EXNAT_3_training,2024.1.0,2024-08-22 10h54.19.658026 +0200,
,,,,,,2,0,2,0,,,,,,,,,,,,,,,,,,,,,,,,,,,,,#88BA3F,False,correct rejection,None,1500,,8,2,0back_single_training,0,,,,,,,,,,,,,,,,#2AB7EF,,OA01,no,2024-08-22_10h54.07.157,EXNAT_3_training,2024.1.0,2024-08-22 10h54.19.658026 +0200,
,,,,,,2,0,2,0,,,,,,,,,,,,,,,,,,,,,,,,,,,,,#D292F3,False,correct rejection,None,16.34693145751953,,9,2,0back_single_training,0,,,,,,,,,,,,,,,,#2AB7EF,,OA01,no,2024-08-22_10h54.07.157,EXNAT_3_training,2024.1.0,2024-08-22 10h54.19.658026 +0200,
,,,,,,2,0,2,0,,,,,,,,,,,,,,,,,,,,,,,,,,,,,#F989A2,False,correct rejection,None,533.4658622741699,,10,2,0back_single_training,0,,,,,,,,,,,,,,,,#2AB7EF,,OA01,no,2024-08-22_10h54.07.157,EXNAT_3_training,2024.1.0,2024-08-22 10h54.19.658026 +0200,
,,,,,,2,0,2,0,,,,,,,,,,,,,,,,,,,,,,,,,,,,,#88BA3F,False,correct rejection,None,600.3220081329346,,11,2,0back_single_training,0,,,,,,,,,,,,,,,,#2AB7EF,,OA01,no,2024-08-22_10h54.07.157,EXNAT_3_training,2024.1.0,2024-08-22 10h54.19.658026 +0200,
,,,,,,2,0,2,0,,,,,,,,,,,,,,,,,,,,,,,,,,,,,#F989A2,False,correct rejection,None,550.7569313049316,,12,2,0back_single_training,0,,,,,,,,,,,,,,,,#2AB7EF,,OA01,no,2024-08-22_10h54.07.157,EXNAT_3_training,2024.1.0,2024-08-22 10h54.19.658026 +0200,
,,,,,,2,0,2,0,,,,,,,,,,,,,,,,,,,,,,,,,,,,,#F989A2,False,correct rejection,None,567.4550533294678,,13,2,0back_single_training,0,,,,,,,,,,,,,,,,#2AB7EF,,OA01,no,2024-08-22_10h54.07.157,EXNAT_3_training,2024.1.0,2024-08-22 10h54.19.658026 +0200,
,,,,,,2,0,2,0,,,,,,,,,,,,,,,,,,,,,,,,,,,,,#D292F3,False,correct rejection,None,834.6469402313232,,14,2,0back_single_training,0,,,,,,,,,,,,,,,,#2AB7EF,,OA01,no,2024-08-22_10h54.07.157,EXNAT_3_training,2024.1.0,2024-08-22 10h54.19.658026 +0200,
,,,,,,2,0,2,0,,,,,,,,,,,,,,,,,,,,,,,,,,,,,#88BA3F,False,correct rejection,None,482.3329448699951,,15,2,0back_single_training,0,,,,,,,,,,,,,,,,#2AB7EF,,OA01,no,2024-08-22_10h54.07.157,EXNAT_3_training,2024.1.0,2024-08-22 10h54.19.658026 +0200,
,,,,,,2,0,2,0,,,,,,,,,,,,,,,,,,,,,,,,,,,,,#F989A2,False,correct rejection,None,534.0840816497803,,16,2,0back_single_training,0,,,,,,,,,,,,,,,,#2AB7EF,,OA01,no,2024-08-22_10h54.07.157,EXNAT_3_training,2024.1.0,2024-08-22 10h54.19.658026 +0200,
,,,,,,2,0,2,0,,,,,,,,,,,,,,,,,,,,,,,,,,,,,#88BA3F,False,correct rejection,None,585.3269100189209,,17,2,0back_single_training,0,,,,,,,,,,,,,,,,#2AB7EF,,OA01,no,2024-08-22_10h54.07.157,EXNAT_3_training,2024.1.0,2024-08-22 10h54.19.658026 +0200,
,,,,,,2,0,2,0,,,,,,,,,,,,,,,,,,,,,,,,,,,,,#2AB7EF,True,hit,1335.0770473480225,1500,,18,2,0back_single_training,0,,,,,,,,,,,,,,,,#2AB7EF,,OA01,no,2024-08-22_10h54.07.157,EXNAT_3_training,2024.1.0,2024-08-22 10h54.19.658026 +0200,
,,,,,,2,0,2,0,,,,,,,,,,,,,,,,,,,,,,,,,,,,,#2AB7EF,True,hit,1485.9049320220947,1500,,19,2,0back_single_training,0,,,,,,,,,,,,,,,,#2AB7EF,,OA01,no,2024-08-22_10h54.07.157,EXNAT_3_training,2024.1.0,2024-08-22 10h54.19.658026 +0200,
,,,,,,2,0,2,0,,,,,,,,,,,,,,,,,,,,,,,,,,,,,#2AB7EF,True,hit,1184.8139762878418,1500,,20,2,0back_single_training,0,,,,,,,,,,,,,,,,#2AB7EF,,OA01,no,2024-08-22_10h54.07.157,EXNAT_3_training,2024.1.0,2024-08-22 10h54.19.658026 +0200,
,,,,,,2,0,2,0,,,,,,,,,,,,,,,,,,,,,,,,,,,564.8633959293365,564.8634078502655,#F989A2,False,correct rejection,None,1500,text_03,1,3,0back_dual_main_click,0,Orang-Utans,,,,,,,,,,,,,,,#88BA3F,,OA01,no,2024-08-22_10h54.07.157,EXNAT_3_training,2024.1.0,2024-08-22 10h54.19.658026 +0200,
,,,,,,2,0,2,0,,,,,,,,,,,,,,,,,,,,,,,,,,,,,#2AB7EF,False,correct rejection,None,1500,text_03,2,3,0back_dual_main_click,0,bauen,,,,,,,,,,,,,,,#88BA3F,,OA01,no,2024-08-22_10h54.07.157,EXNAT_3_training,2024.1.0,2024-08-22 10h54.19.658026 +0200,
,,,,,,2,0,2,0,,,,,,,,,,,,,,,,,,,,,,,,,,,,,#88BA3F,True,hit,1418.044090270996,1500,text_03,3,3,0back_dual_main_click,0,sich,,,,,,,,,,,,,,,#88BA3F,,OA01,no,2024-08-22_10h54.07.157,EXNAT_3_training,2024.1.0,2024-08-22 10h54.19.658026 +0200,
,,,,,,2,0,2,0,,,,,,,,,,,,,,,,,,,,,,,,,,,,,#88BA3F,True,hit,1348.1390476226807,1500,text_03,4,3,0back_dual_main_click,0,jede,,,,,,,,,,,,,,,#88BA3F,,OA01,no,2024-08-22_10h54.07.157,EXNAT_3_training,2024.1.0,2024-08-22 10h54.19.658026 +0200,
,,,,,,2,0,2,0,,,,,,,,,,,,,,,,,,,,,,,,,,,,,#D292F3,False,correct rejection,None,1149.811029434204,text_03,5,3,0back_dual_main_click,0,Nacht,,,,,,,,,,,,,,,#88BA3F,,OA01,no,2024-08-22_10h54.07.157,EXNAT_3_training,2024.1.0,2024-08-22 10h54.19.658026 +0200,
,,,,,,2,0,2,0,,,,,,,,,,,,,,,,,,,,,,,,,,,,,#F989A2,False,correct rejection,None,1149.8041152954102,text_03,6,3,0back_dual_main_click,0,gemütliche,,,,,,,,,,,,,,,#88BA3F,,OA01,no,2024-08-22_10h54.07.157,EXNAT_3_training,2024.1.0,2024-08-22 10h54.19.658026 +0200,
,,,,,,2,0,2,0,,,,,,,,,,,,,,,,,,,,,,,,,,,,,#2AB7EF,False,correct rejection,None,1282.9720973968506,text_03,7,3,0back_dual_main_click,0,Schlafnester,,,,,,,,,,,,,,,#88BA3F,,OA01,no,2024-08-22_10h54.07.157,EXNAT_3_training,2024.1.0,2024-08-22 10h54.19.658026 +0200,
,,,,,,2,0,2,0,,,,,,,,,,,,,,,,,,,,,,,,,,,,,#F989A2,False,correct rejection,None,1365.1340007781982,text_03,8,3,0back_dual_main_click,0,hoch,,,,,,,,,,,,,,,#88BA3F,,OA01,no,2024-08-22_10h54.07.157,EXNAT_3_training,2024.1.0,2024-08-22 10h54.19.658026 +0200,
,,,,,,2,0,2,0,,,,,,,,,,,,,,,,,,,,,,,,,,,,,#F989A2,False,correct rejection,None,1151.4079570770264,text_03,9,3,0back_dual_main_click,0,in,,,,,,,,,,,,,,,#88BA3F,,OA01,no,2024-08-22_10h54.07.157,EXNAT_3_training,2024.1.0,2024-08-22 10h54.19.658026 +0200,
,,,,,,2,0,2,0,,,,,,,,,,,,,,,,,,,,,,,,,,,,,#D292F3,False,correct rejection,None,1500,text_03,10,3,0back_dual_main_click,0,den,,,,,,,,,,,,,,,#88BA3F,,OA01,no,2024-08-22_10h54.07.157,EXNAT_3_training,2024.1.0,2024-08-22 10h54.19.658026 +0200,
,,,,,,2,0,2,0,,,,,,,,,,,,,,,,,,,,,,,,,,,,,#2AB7EF,False,correct rejection,None,80.03997802734375,text_03,11,3,0back_dual_main_click,0,Bäumen.,,,,,,,,,,,,,,,#88BA3F,,OA01,no,2024-08-22_10h54.07.157,EXNAT_3_training,2024.1.0,2024-08-22 10h54.19.658026 +0200,
,,,,,,2,0,2,0,,,,,,,,,,,,,,,,,,,,,,,,,,,,,#F989A2,False,correct rejection,None,1500,text_03,12,3,0back_dual_main_click,0,Diese,,,,,,,,,,,,,,,#88BA3F,,OA01,no,2024-08-22_10h54.07.157,EXNAT_3_training,2024.1.0,2024-08-22 10h54.19.658026 +0200,
,,,,,,2,0,2,0,,,,,,,,,,,,,,,,,,,,,,,,,,,,,#2AB7EF,False,correct rejection,None,1500,text_03,13,3,0back_dual_main_click,0,Nester,,,,,,,,,,,,,,,#88BA3F,,OA01,no,2024-08-22_10h54.07.157,EXNAT_3_training,2024.1.0,2024-08-22 10h54.19.658026 +0200,
,,,,,,2,0,2,0,,,,,,,,,,,,,,,,,,,,,,,,,,,,,#D292F3,False,correct rejection,None,1500,text_03,14,3,0back_dual_main_click,0,bestehen,,,,,,,,,,,,,,,#88BA3F,,OA01,no,2024-08-22_10h54.07.157,EXNAT_3_training,2024.1.0,2024-08-22 10h54.19.658026 +0200,
,,,,,,2,0,2,0,,,,,,,,,,,,,,,,,,,,,,,,,,,,,#88BA3F,True,miss,None,1500,text_03,15,3,0back_dual_main_click,0,aus,,,,,,,,,,,,,,,#88BA3F,,OA01,no,2024-08-22_10h54.07.157,EXNAT_3_training,2024.1.0,2024-08-22 10h54.19.658026 +0200,
,,,,,,2,0,2,0,,,,,,,,,,,,,,,,,,,,,,,,,,,,,#D292F3,False,correct rejection,None,1500,text_03,16,3,0back_dual_main_click,0,Ästen,,,,,,,,,,,,,,,#88BA3F,,OA01,no,2024-08-22_10h54.07.157,EXNAT_3_training,2024.1.0,2024-08-22 10h54.19.658026 +0200,
,,,,,,2,0,2,0,,,,,,,,,,,,,,,,,,,,,,,,,,,,,#D292F3,False,correct rejection,None,1500,text_03,17,3,0back_dual_main_click,0,und,,,,,,,,,,,,,,,#88BA3F,,OA01,no,2024-08-22_10h54.07.157,EXNAT_3_training,2024.1.0,2024-08-22 10h54.19.658026 +0200,
,,,,,,2,0,2,0,,,,,,,,,,,,,,,,,,,,,,,,,,,,,#F989A2,False,correct rejection,None,1500,text_03,18,3,0back_dual_main_click,0,Blättern,,,,,,,,,,,,,,,#88BA3F,,OA01,no,2024-08-22_10h54.07.157,EXNAT_3_training,2024.1.0,2024-08-22 10h54.19.658026 +0200,
,,,,,,2,0,2,0,,,,,,,,,,,,,,,,,,,,,,,,,,,,,#F989A2,False,correct rejection,None,1500,text_03,19,3,0back_dual_main_click,0,und,,,,,,,,,,,,,,,#88BA3F,,OA01,no,2024-08-22_10h54.07.157,EXNAT_3_training,2024.1.0,2024-08-22 10h54.19.658026 +0200,
,,,,,,2,0,2,0,,,,,,,,,,,,,,,,,,,,,,,,,,,,,#F989A2,False,correct rejection,None,81.82096481323242,text_03,20,3,0back_dual_main_click,0,bieten,,,,,,,,,,,,,,,#88BA3F,,OA01,no,2024-08-22_10h54.07.157,EXNAT_3_training,2024.1.0,2024-08-22 10h54.19.658026 +0200,
,,,,,,2,0,2,0,,,,,,,,,,,,,,,,,,,,,,,,,,,,,#88BA3F,True,hit,1350.4259586334229,1500,text_03,21,3,0back_dual_main_click,0,den,,,,,,,,,,,,,,,#88BA3F,,OA01,no,2024-08-22_10h54.07.157,EXNAT_3_training,2024.1.0,2024-08-22 10h54.19.658026 +0200,
,,,,,,2,0,2,0,,,,,,,,,,,,,,,,,,,,,,,,,,,,,#F989A2,False,correct rejection,None,815.1190280914307,text_03,22,3,0back_dual_main_click,0,Affen,,,,,,,,,,,,,,,#88BA3F,,OA01,no,2024-08-22_10h54.07.157,EXNAT_3_training,2024.1.0,2024-08-22 10h54.19.658026 +0200,
,,,,,,2,0,2,0,,,,,,,,,,,,,,,,,,,,,,,,,,,,,#2AB7EF,False,correct rejection,None,1233.0470085144043,text_03,23,3,0back_dual_main_click,0,Komfort,,,,,,,,,,,,,,,#88BA3F,,OA01,no,2024-08-22_10h54.07.157,EXNAT_3_training,2024.1.0,2024-08-22 10h54.19.658026 +0200,
,,,,,,2,0,2,0,,,,,,,,,,,,,,,,,,,,,,,,,,,,,#F989A2,False,correct rejection,None,1500,text_03,24,3,0back_dual_main_click,0,und,,,,,,,,,,,,,,,#88BA3F,,OA01,no,2024-08-22_10h54.07.157,EXNAT_3_training,2024.1.0,2024-08-22 10h54.19.658026 +0200,
,,,,,,2,0,2,0,,,,,,,,,,,,,,,,,,,,,,,,,,,,,#88BA3F,True,miss,None,130.84912300109863,text_03,25,3,0back_dual_main_click,0,Schutz.,,,,,,,,,,,,,,,#88BA3F,,OA01,no,2024-08-22_10h54.07.157,EXNAT_3_training,2024.1.0,2024-08-22 10h54.19.658026 +0200,
,,,,,,2,0,2,0,,,,,,,,,,,,,,,,,,,,,,,,,,,,,#F989A2,False,correct rejection,None,1500,text_03,26,3,0back_dual_main_click,0,Forscher,,,,,,,,,,,,,,,#88BA3F,,OA01,no,2024-08-22_10h54.07.157,EXNAT_3_training,2024.1.0,2024-08-22 10h54.19.658026 +0200,
,,,,,,2,0,2,0,,,,,,,,,,,,,,,,,,,,,,,,,,,,,#88BA3F,True,hit,1167.2730445861816,1500,text_03,27,3,0back_dual_main_click,0,haben,,,,,,,,,,,,,,,#88BA3F,,OA01,no,2024-08-22_10h54.07.157,EXNAT_3_training,2024.1.0,2024-08-22 10h54.19.658026 +0200,
,,,,,,2,0,2,0,,,,,,,,,,,,,,,,,,,,,,,,,,,,,#D292F3,False,correct rejection,None,1316.3120746612549,text_03,28,3,0back_dual_main_click,0,"entdeckt,",,,,,,,,,,,,,,,#88BA3F,,OA01,no,2024-08-22_10h54.07.157,EXNAT_3_training,2024.1.0,2024-08-22 10h54.19.658026 +0200,
,,,,,,2,0,2,0,,,,,,,,,,,,,,,,,,,,,,,,,,,,,#F989A2,False,correct rejection,None,649.2710113525391,text_03,29,3,0back_dual_main_click,0,dass,,,,,,,,,,,,,,,#88BA3F,,OA01,no,2024-08-22_10h54.07.157,EXNAT_3_training,2024.1.0,2024-08-22 10h54.19.658026 +0200,
,,,,,,2,0,2,0,,,,,,,,,,,,,,,,,,,,,,,,,,,,,#2AB7EF,False,correct rejection,None,1066.519021987915,text_03,30,3,0back_dual_main_click,0,Orang-Utans,,,,,,,,,,,,,,,#88BA3F,,OA01,no,2024-08-22_10h54.07.157,EXNAT_3_training,2024.1.0,2024-08-22 10h54.19.658026 +0200,
,,,,,,2,0,2,0,,,,,,,,,,,,,,,,,,,,,,,,,,,,,#F989A2,False,correct rejection,None,1066.7738914489746,text_03,31,3,0back_dual_main_click,0,sehr,,,,,,,,,,,,,,,#88BA3F,,OA01,no,2024-08-22_10h54.07.157,EXNAT_3_training,2024.1.0,2024-08-22 10h54.19.658026 +0200,
,,,,,,2,0,2,0,,,,,,,,,,,,,,,,,,,,,,,,,,,,,#2AB7EF,False,correct rejection,None,1182.7092170715332,text_03,32,3,0back_dual_main_click,0,geschickt,,,,,,,,,,,,,,,#88BA3F,,OA01,no,2024-08-22_10h54.07.157,EXNAT_3_training,2024.1.0,2024-08-22 10h54.19.658026 +0200,
,,,,,,2,0,2,0,,,,,,,,,,,,,,,,,,,,,,,,,,,,,#D292F3,False,correct rejection,None,932.6779842376709,text_03,33,3,0back_dual_main_click,0,vorgehen:,,,,,,,,,,,,,,,#88BA3F,,OA01,no,2024-08-22_10h54.07.157,EXNAT_3_training,2024.1.0,2024-08-22 10h54.19.658026 +0200,
,,,,,,2,0,2,0,,,,,,,,,,,,,,,,,,,,,,,,,,,,,#D292F3,False,correct rejection,None,1484.2422008514404,text_03,34,3,0back_dual_main_click,0,Sie,,,,,,,,,,,,,,,#88BA3F,,OA01,no,2024-08-22_10h54.07.157,EXNAT_3_training,2024.1.0,2024-08-22 10h54.19.658026 +0200,
,,,,,,2,0,2,0,,,,,,,,,,,,,,,,,,,,,,,,,,,,,#2AB7EF,False,correct rejection,None,1032.1929454803467,text_03,35,3,0back_dual_main_click,0,wählen,,,,,,,,,,,,,,,#88BA3F,,OA01,no,2024-08-22_10h54.07.157,EXNAT_3_training,2024.1.0,2024-08-22 10h54.19.658026 +0200,
,,,,,,2,0,2,0,,,,,,,,,,,,,,,,,,,,,,,,,,,,,#D292F3,False,correct rejection,None,1384.0291500091553,text_03,36,3,0back_dual_main_click,0,stabile,,,,,,,,,,,,,,,#88BA3F,,OA01,no,2024-08-22_10h54.07.157,EXNAT_3_training,2024.1.0,2024-08-22 10h54.19.658026 +0200,
,,,,,,2,0,2,0,,,,,,,,,,,,,,,,,,,,,,,,,,,,,#2AB7EF,False,correct rejection,None,949.6819972991943,text_03,37,3,0back_dual_main_click,0,Äste,,,,,,,,,,,,,,,#88BA3F,,OA01,no,2024-08-22_10h54.07.157,EXNAT_3_training,2024.1.0,2024-08-22 10h54.19.658026 +0200,
,,,,,,2,0,2,0,,,,,,,,,,,,,,,,,,,,,,,,,,,,,#88BA3F,True,miss,None,1500,text_03,38,3,0back_dual_main_click,0,aus,,,,,,,,,,,,,,,#88BA3F,,OA01,no,2024-08-22_10h54.07.157,EXNAT_3_training,2024.1.0,2024-08-22 10h54.19.658026 +0200,
,,,,,,2,0,2,0,,,,,,,,,,,,,,,,,,,,,,,,,,,,,#2AB7EF,False,false alarm,81.48384094238281,1417.409896850586,text_03,39,3,0back_dual_main_click,0,und,,,,,,,,,,,,,,,#88BA3F,,OA01,no,2024-08-22_10h54.07.157,EXNAT_3_training,2024.1.0,2024-08-22 10h54.19.658026 +0200,
,,,,,,2,0,2,0,,,,,,,,,,,,,,,,,,,,,,,,,,,,,#2AB7EF,False,correct rejection,None,1500,text_03,40,3,0back_dual_main_click,0,biegen,,,,,,,,,,,,,,,#88BA3F,,OA01,no,2024-08-22_10h54.07.157,EXNAT_3_training,2024.1.0,2024-08-22 10h54.19.658026 +0200,
,,,,,,2,0,2,0,,,,,,,,,,,,,,,,,,,,,,,,,,,,,#2AB7EF,False,correct rejection,None,1500,text_03,41,3,0back_dual_main_click,0,"diese,",,,,,,,,,,,,,,,#88BA3F,,OA01,no,2024-08-22_10h54.07.157,EXNAT_3_training,2024.1.0,2024-08-22 10h54.19.658026 +0200,
,,,,,,2,0,2,0,,,,,,,,,,,,,,,,,,,,,,,,,,,,,#D292F3,False,correct rejection,None,81.89010620117188,text_03,42,3,0back_dual_main_click,0,ohne,,,,,,,,,,,,,,,#88BA3F,,OA01,no,2024-08-22_10h54.07.157,EXNAT_3_training,2024.1.0,2024-08-22 10h54.19.658026 +0200,
,,,,,,2,0,2,0,,,,,,,,,,,,,,,,,,,,,,,,,,,,,#88BA3F,True,hit,1334.0871334075928,1500,text_03,43,3,0back_dual_main_click,0,sie,,,,,,,,,,,,,,,#88BA3F,,OA01,no,2024-08-22_10h54.07.157,EXNAT_3_training,2024.1.0,2024-08-22 10h54.19.658026 +0200,
,,,,,,2,0,2,0,,,,,,,,,,,,,,,,,,,,,,,,,,,,,#88BA3F,True,hit,1149.6798992156982,1500,text_03,44,3,0back_dual_main_click,0,ganz,,,,,,,,,,,,,,,#88BA3F,,OA01,no,2024-08-22_10h54.07.157,EXNAT_3_training,2024.1.0,2024-08-22 10h54.19.658026 +0200,
,,,,,,2,0,2,0,,,,,,,,,,,,,,,,,,,,,,,,,,,,,#D292F3,False,correct rejection,None,1350.0421047210693,text_03,45,3,0back_dual_main_click,0,zu,,,,,,,,,,,,,,,#88BA3F,,OA01,no,2024-08-22_10h54.07.157,EXNAT_3_training,2024.1.0,2024-08-22 10h54.19.658026 +0200,
,,,,,,2,0,2,0,,,,,,,,,,,,,,,,,,,,,,,,,,,,,#F989A2,False,correct rejection,None,931.8368434906006,text_03,46,3,0back_dual_main_click,0,brechen.,,,,,,,,,,,,,,,#88BA3F,,OA01,no,2024-08-22_10h54.07.157,EXNAT_3_training,2024.1.0,2024-08-22 10h54.19.658026 +0200,
,,,,,,2,0,2,0,,,,,,,,,,,,,,,,,,,,,,,,,,,,,#F989A2,False,correct rejection,None,1350.7001399993896,text_03,47,3,0back_dual_main_click,0,So,,,,,,,,,,,,,,,#88BA3F,,OA01,no,2024-08-22_10h54.07.157,EXNAT_3_training,2024.1.0,2024-08-22 10h54.19.658026 +0200,
,,,,,,2,0,2,0,,,,,,,,,,,,,,,,,,,,,,,,,,,,,#2AB7EF,False,correct rejection,None,850.5990505218506,text_03,48,3,0back_dual_main_click,0,entsteht,,,,,,,,,,,,,,,#88BA3F,,OA01,no,2024-08-22_10h54.07.157,EXNAT_3_training,2024.1.0,2024-08-22 10h54.19.658026 +0200,
,,,,,,2,0,2,0,,,,,,,,,,,,,,,,,,,,,,,,,,,,,#2AB7EF,False,correct rejection,None,699.9571323394775,text_03,49,3,0back_dual_main_click,0,eine,,,,,,,,,,,,,,,#88BA3F,,OA01,no,2024-08-22_10h54.07.157,EXNAT_3_training,2024.1.0,2024-08-22 10h54.19.658026 +0200,
,,,,,,2,0,2,0,,,,,,,,,,,,,,,,,,,,,,,,,,,,,#D292F3,False,correct rejection,None,882.8990459442139,text_03,50,3,0back_dual_main_click,0,robuste,,,,,,,,,,,,,,,#88BA3F,,OA01,no,2024-08-22_10h54.07.157,EXNAT_3_training,2024.1.0,2024-08-22 10h54.19.658026 +0200,
,,,,,,2,0,2,0,,,,,,,,,,,,,,,,,,,,,,,,,,,,,#F989A2,False,correct rejection,None,932.2400093078613,text_03,51,3,0back_dual_main_click,0,Grundstruktur.,,,,,,,,,,,,,,,#88BA3F,,OA01,no,2024-08-22_10h54.07.157,EXNAT_3_training,2024.1.0,2024-08-22 10h54.19.658026 +0200,
,,,,,,2,0,2,0,,,,,,,,,,,,,,,,,,,,,,,,,,,,,#D292F3,False,correct rejection,None,1065.9170150756836,text_03,52,3,0back_dual_main_click,0,Die,,,,,,,,,,,,,,,#88BA3F,,OA01,no,2024-08-22_10h54.07.157,EXNAT_3_training,2024.1.0,2024-08-22 10h54.19.658026 +0200,
,,,,,,2,0,2,0,,,,,,,,,,,,,,,,,,,,,,,,,,,,,#88BA3F,True,hit,1032.5911045074463,1500,text_03,53,3,0back_dual_main_click,0,Polsterung,,,,,,,,,,,,,,,#88BA3F,,OA01,no,2024-08-22_10h54.07.157,EXNAT_3_training,2024.1.0,2024-08-22 10h54.19.658026 +0200,
,,,,,,2,0,2,0,,,,,,,,,,,,,,,,,,,,,,,,,,,,,#F989A2,False,correct rejection,None,800.0690937042236,text_03,54,3,0back_dual_main_click,0,der,,,,,,,,,,,,,,,#88BA3F,,OA01,no,2024-08-22_10h54.07.157,EXNAT_3_training,2024.1.0,2024-08-22 10h54.19.658026 +0200,
,,,,,,2,0,2,0,,,,,,,,,,,,,,,,,,,,,,,,,,,,,#D292F3,False,correct rejection,None,1500,text_03,55,3,0back_dual_main_click,0,Nester,,,,,,,,,,,,,,,#88BA3F,,OA01,no,2024-08-22_10h54.07.157,EXNAT_3_training,2024.1.0,2024-08-22 10h54.19.658026 +0200,
,,,,,,2,0,2,0,,,,,,,,,,,,,,,,,,,,,,,,,,,,,#2AB7EF,False,correct rejection,None,348.5419750213623,text_03,56,3,0back_dual_main_click,0,besteht,,,,,,,,,,,,,,,#88BA3F,,OA01,no,2024-08-22_10h54.07.157,EXNAT_3_training,2024.1.0,2024-08-22 10h54.19.658026 +0200,
,,,,,,2,0,2,0,,,,,,,,,,,,,,,,,,,,,,,,,,,,,#F989A2,False,correct rejection,None,1167.6290035247803,text_03,57,3,0back_dual_main_click,0,aus,,,,,,,,,,,,,,,#88BA3F,,OA01,no,2024-08-22_10h54.07.157,EXNAT_3_training,2024.1.0,2024-08-22 10h54.19.658026 +0200,
,,,,,,2,0,2,0,,,,,,,,,,,,,,,,,,,,,,,,,,,,,#F989A2,False,correct rejection,None,766.0129070281982,text_03,58,3,0back_dual_main_click,0,dünneren,,,,,,,,,,,,,,,#88BA3F,,OA01,no,2024-08-22_10h54.07.157,EXNAT_3_training,2024.1.0,2024-08-22 10h54.19.658026 +0200,
,,,,,,2,0,2,0,,,,,,,,,,,,,,,,,,,,,,,,,,,,,#D292F3,False,correct rejection,None,932.8529834747314,text_03,59,3,0back_dual_main_click,0,Ästen,,,,,,,,,,,,,,,#88BA3F,,OA01,no,2024-08-22_10h54.07.157,EXNAT_3_training,2024.1.0,2024-08-22 10h54.19.658026 +0200,
,,,,,,2,0,2,0,,,,,,,,,,,,,,,,,,,,,,,,,,,,,#F989A2,False,correct rejection,None,949.0988254547119,text_03,60,3,0back_dual_main_click,0,und,,,,,,,,,,,,,,,#88BA3F,,OA01,no,2024-08-22_10h54.07.157,EXNAT_3_training,2024.1.0,2024-08-22 10h54.19.658026 +0200,
,,,,,,2,0,2,0,,,,,,,,,,,,,,,,,,,,,,,,,,,,,#2AB7EF,False,correct rejection,None,816.6420459747314,text_03,61,3,0back_dual_main_click,0,macht,,,,,,,,,,,,,,,#88BA3F,,OA01,no,2024-08-22_10h54.07.157,EXNAT_3_training,2024.1.0,2024-08-22 10h54.19.658026 +0200,
,,,,,,2,0,2,0,,,,,,,,,,,,,,,,,,,,,,,,,,,,,#F989A2,False,correct rejection,None,747.9519844055176,text_03,62,3,0back_dual_main_click,0,das,,,,,,,,,,,,,,,#88BA3F,,OA01,no,2024-08-22_10h54.07.157,EXNAT_3_training,2024.1.0,2024-08-22 10h54.19.658026 +0200,
,,,,,,2,0,2,0,,,,,,,,,,,,,,,,,,,,,,,,,,,,,#2AB7EF,False,correct rejection,None,849.621057510376,text_03,63,3,0back_dual_main_click,0,Nest,,,,,,,,,,,,,,,#88BA3F,,OA01,no,2024-08-22_10h54.07.157,EXNAT_3_training,2024.1.0,2024-08-22 10h54.19.658026 +0200,
,,,,,,2,0,2,0,,,,,,,,,,,,,,,,,,,,,,,,,,,,,#F989A2,False,correct rejection,None,934.6439838409424,text_03,64,3,0back_dual_main_click,0,besonders,,,,,,,,,,,,,,,#88BA3F,,OA01,no,2024-08-22_10h54.07.157,EXNAT_3_training,2024.1.0,2024-08-22 10h54.19.658026 +0200,
,,,,,,2,0,2,0,,,,,,,,,,,,,,,,,,,,,,,,,,,,,#F989A2,False,correct rejection,None,781.5730571746826,text_03,65,3,0back_dual_main_click,0,bequem.,,,,,,,,,,,,,,,#88BA3F,,OA01,no,2024-08-22_10h54.07.157,EXNAT_3_training,2024.1.0,2024-08-22 10h54.19.658026 +0200,
,,,,,,2,0,2,0,,,,,,,,,,,,,,,,,,,,,,,,,,,,,#F989A2,False,correct rejection,None,849.545955657959,text_03,66,3,0back_dual_main_click,0,Diese,,,,,,,,,,,,,,,#88BA3F,,OA01,no,2024-08-22_10h54.07.157,EXNAT_3_training,2024.1.0,2024-08-22 10h54.19.658026 +0200,
,,,,,,2,0,2,0,,,,,,,,,,,,,,,,,,,,,,,,,,,,,#F989A2,False,correct rejection,None,966.6581153869629,text_03,67,3,0back_dual_main_click,0,Bauweise,,,,,,,,,,,,,,,#88BA3F,,OA01,no,2024-08-22_10h54.07.157,EXNAT_3_training,2024.1.0,2024-08-22 10h54.19.658026 +0200,
,,,,,,2,0,2,0,,,,,,,,,,,,,,,,,,,,,,,,,,,,,#88BA3F,True,hit,1165.7328605651855,1500,text_03,68,3,0back_dual_main_click,0,schützt,,,,,,,,,,,,,,,#88BA3F,,OA01,no,2024-08-22_10h54.07.157,EXNAT_3_training,2024.1.0,2024-08-22 10h54.19.658026 +0200,
,,,,,,2,0,2,0,,,,,,,,,,,,,,,,,,,,,,,,,,,,,#88BA3F,True,miss,None,782.7608585357666,text_03,69,3,0back_dual_main_click,0,die,,,,,,,,,,,,,,,#88BA3F,,OA01,no,2024-08-22_10h54.07.157,EXNAT_3_training,2024.1.0,2024-08-22 10h54.19.658026 +0200,
,,,,,,2,0,2,0,,,,,,,,,,,,,,,,,,,,,,,,,,,,,#2AB7EF,False,correct rejection,None,1500,text_03,70,3,0back_dual_main_click,0,Orang-Utans,,,,,,,,,,,,,,,#88BA3F,,OA01,no,2024-08-22_10h54.07.157,EXNAT_3_training,2024.1.0,2024-08-22 10h54.19.658026 +0200,
,,,,,,2,0,2,0,,,,,,,,,,,,,,,,,,,,,,,,,,,,,#D292F3,False,correct rejection,None,1500,text_03,71,3,0back_dual_main_click,0,nicht,,,,,,,,,,,,,,,#88BA3F,,OA01,no,2024-08-22_10h54.07.157,EXNAT_3_training,2024.1.0,2024-08-22 10h54.19.658026 +0200,
,,,,,,2,0,2,0,,,,,,,,,,,,,,,,,,,,,,,,,,,,,#88BA3F,True,hit,1200.819969177246,1500,text_03,72,3,0back_dual_main_click,0,nur,,,,,,,,,,,,,,,#88BA3F,,OA01,no,2024-08-22_10h54.07.157,EXNAT_3_training,2024.1.0,2024-08-22 10h54.19.658026 +0200,
,,,,,,2,0,2,0,,,,,,,,,,,,,,,,,,,,,,,,,,,,,#D292F3,False,correct rejection,None,966.3751125335693,text_03,73,3,0back_dual_main_click,0,vor,,,,,,,,,,,,,,,#88BA3F,,OA01,no,2024-08-22_10h54.07.157,EXNAT_3_training,2024.1.0,2024-08-22 10h54.19.658026 +0200,
,,,,,,2,0,2,0,,,,,,,,,,,,,,,,,,,,,,,,,,,,,#D292F3,False,correct rejection,None,765.7039165496826,text_03,74,3,0back_dual_main_click,0,dem,,,,,,,,,,,,,,,#88BA3F,,OA01,no,2024-08-22_10h54.07.157,EXNAT_3_training,2024.1.0,2024-08-22 10h54.19.658026 +0200,
,,,,,,2,0,2,0,,,,,,,,,,,,,,,,,,,,,,,,,,,,,#D292F3,False,correct rejection,None,1066.4160251617432,text_03,75,3,0back_dual_main_click,0,"Herunterfallen,",,,,,,,,,,,,,,,#88BA3F,,OA01,no,2024-08-22_10h54.07.157,EXNAT_3_training,2024.1.0,2024-08-22 10h54.19.658026 +0200,
,,,,,,2,0,2,0,,,,,,,,,,,,,,,,,,,,,,,,,,,,,#2AB7EF,False,correct rejection,None,898.7679481506348,text_03,76,3,0back_dual_main_click,0,sondern,,,,,,,,,,,,,,,#88BA3F,,OA01,no,2024-08-22_10h54.07.157,EXNAT_3_training,2024.1.0,2024-08-22 10h54.19.658026 +0200,
,,,,,,2,0,2,0,,,,,,,,,,,,,,,,,,,,,,,,,,,,,#D292F3,False,correct rejection,None,799.6678352355957,text_03,77,3,0back_dual_main_click,0,auch,,,,,,,,,,,,,,,#88BA3F,,OA01,no,2024-08-22_10h54.07.157,EXNAT_3_training,2024.1.0,2024-08-22 10h54.19.658026 +0200,
,,,,,,2,0,2,0,,,,,,,,,,,,,,,,,,,,,,,,,,,,,#2AB7EF,False,correct rejection,None,766.4260864257812,text_03,78,3,0back_dual_main_click,0,vor,,,,,,,,,,,,,,,#88BA3F,,OA01,no,2024-08-22_10h54.07.157,EXNAT_3_training,2024.1.0,2024-08-22 10h54.19.658026 +0200,
,,,,,,2,0,2,0,,,,,,,,,,,,,,,,,,,,,,,,,,,,,#88BA3F,True,hit,1099.797010421753,1500,text_03,79,3,0back_dual_main_click,0,Feinden,,,,,,,,,,,,,,,#88BA3F,,OA01,no,2024-08-22_10h54.07.157,EXNAT_3_training,2024.1.0,2024-08-22 10h54.19.658026 +0200,
,,,,,,2,0,2,0,,,,,,,,,,,,,,,,,,,,,,,,,,,,,#D292F3,False,correct rejection,None,983.2580089569092,text_03,80,3,0back_dual_main_click,0,und,,,,,,,,,,,,,,,#88BA3F,,OA01,no,2024-08-22_10h54.07.157,EXNAT_3_training,2024.1.0,2024-08-22 10h54.19.658026 +0200,
,,,,,,2,0,2,0,,,,,,,,,,,,,,,,,,,,,,,,,,,,,#88BA3F,True,hit,1282.3491096496582,1500,text_03,81,3,0back_dual_main_click,0,Parasiten.,,,,,,,,,,,,,,,#88BA3F,,OA01,no,2024-08-22_10h54.07.157,EXNAT_3_training,2024.1.0,2024-08-22 10h54.19.658026 +0200,
,,,,,,2,0,2,0,,,,,,,,,,,,,,,,,,,,,,,,,,,,,#D292F3,False,correct rejection,None,734.4861030578613,text_03,82,3,0back_dual_main_click,0,So,,,,,,,,,,,,,,,#88BA3F,,OA01,no,2024-08-22_10h54.07.157,EXNAT_3_training,2024.1.0,2024-08-22 10h54.19.658026 +0200,
,,,,,,2,0,2,0,,,,,,,,,,,,,,,,,,,,,,,,,,,,,#D292F3,False,correct rejection,None,1500,text_03,83,3,0back_dual_main_click,0,schlafen,,,,,,,,,,,,,,,#88BA3F,,OA01,no,2024-08-22_10h54.07.157,EXNAT_3_training,2024.1.0,2024-08-22 10h54.19.658026 +0200,
,,,,,,2,0,2,0,,,,,,,,,,,,,,,,,,,,,,,,,,,,,#2AB7EF,False,correct rejection,None,282.059907913208,text_03,84,3,0back_dual_main_click,0,die,,,,,,,,,,,,,,,#88BA3F,,OA01,no,2024-08-22_10h54.07.157,EXNAT_3_training,2024.1.0,2024-08-22 10h54.19.658026 +0200,
,,,,,,2,0,2,0,,,,,,,,,,,,,,,,,,,,,,,,,,,,,#D292F3,False,correct rejection,None,1366.9531345367432,text_03,85,3,0back_dual_main_click,0,Primaten,,,,,,,,,,,,,,,#88BA3F,,OA01,no,2024-08-22_10h54.07.157,EXNAT_3_training,2024.1.0,2024-08-22 10h54.19.658026 +0200,
,,,,,,2,0,2,0,,,,,,,,,,,,,,,,,,,,,,,,,,,,,#2AB7EF,False,correct rejection,None,816.107988357544,text_03,86,3,0back_dual_main_click,0,sicher,,,,,,,,,,,,,,,#88BA3F,,OA01,no,2024-08-22_10h54.07.157,EXNAT_3_training,2024.1.0,2024-08-22 10h54.19.658026 +0200,
,,,,,,2,0,2,0,,,,,,,,,,,,,,,,,,,,,,,,,,,,,#2AB7EF,False,correct rejection,None,716.109037399292,text_03,87,3,0back_dual_main_click,0,und,,,,,,,,,,,,,,,#88BA3F,,OA01,no,2024-08-22_10h54.07.157,EXNAT_3_training,2024.1.0,2024-08-22 10h54.19.658026 +0200,
,,,,,,2,0,2,0,,,,,,,,,,,,,,,,,,,,,,,,,,,,,#2AB7EF,False,correct rejection,None,882.6401233673096,text_03,88,3,0back_dual_main_click,0,komfortabel,,,,,,,,,,,,,,,#88BA3F,,OA01,no,2024-08-22_10h54.07.157,EXNAT_3_training,2024.1.0,2024-08-22 10h54.19.658026 +0200,
,,,,,,2,0,2,0,,,,,,,,,,,,,,,,,,,,,,,,,,,,,#D292F3,False,correct rejection,None,799.6280193328857,text_03,89,3,0back_dual_main_click,0,in,,,,,,,,,,,,,,,#88BA3F,,OA01,no,2024-08-22_10h54.07.157,EXNAT_3_training,2024.1.0,2024-08-22 10h54.19.658026 +0200,
,,,,,,2,0,2,0,,,,,,,,,,,,,,,,,,,,,,,,,,,,,#2AB7EF,False,correct rejection,None,832.852840423584,text_03,90,3,0back_dual_main_click,0,ihren,,,,,,,,,,,,,,,#88BA3F,,OA01,no,2024-08-22_10h54.07.157,EXNAT_3_training,2024.1.0,2024-08-22 10h54.19.658026 +0200,
,,,,,,2,0,2,0,,,,,,,,,,,,,,,,,,,,,,,,,,,,,#2AB7EF,False,correct rejection,None,999.2861747741699,text_03,91,3,0back_dual_main_click,0,Nestern.,,,,,,,,,,,,,,,#88BA3F,,OA01,no,2024-08-22_10h54.07.157,EXNAT_3_training,2024.1.0,2024-08-22 10h54.19.658026 +0200,
,,,,,,2,0,2,0,,,,,,,,,,,,,,,,,,,,,,,,,,,,,,,,,,text_03,,,0back_dual_main_click,,,675.3212628364563,Q1,NA,NA,False,4,0,,,,,,,,,,OA01,no,2024-08-22_10h54.07.157,EXNAT_3_training,2024.1.0,2024-08-22 10h54.19.658026 +0200,
,,,,,,2,0,2,0,,,,,,,,,,,,,,,,,,,,,,,,,,,,,,,,,,text_03,,,0back_dual_main_click,,,685.3667709827423,Q2,1,a,True,4,0,,,,,,,,,,OA01,no,2024-08-22_10h54.07.157,EXNAT_3_training,2024.1.0,2024-08-22 10h54.19.658026 +0200,
,,,,,,2,0,2,0,,,,,,,,,,,,,,,,,,,,,,,,,,,,,,,,,,text_03,,,0back_dual_main_click,,,689.6660869121552,Q3,2,b,True,4,0,,,,,,,,,,OA01,no,2024-08-22_10h54.07.157,EXNAT_3_training,2024.1.0,2024-08-22 10h54.19.658026 +0200,
,,,,,,2,0,2,0,,,,,,,,,,,,,,,,,,,,,,,,,,,,,,,,,,,,,,,,,,,,,,,695.2665839195251,695.2665939331055,695.3072910308838,695.3073048591614,695.3162519931793,695.3162670135498,695.3333399295807,,,OA01,no,2024-08-22_10h54.07.157,EXNAT_3_training,2024.1.0,2024-08-22 10h54.19.658026 +0200,
,,,,,,3,0,3,0,695.3495919704437,,,,,,,,,,,,,,,,,,,,,,,,,695.3336470127106,,,#D292F3,False,correct rejection,None,1500,,1,4,1back_single_training1,1,,,,,,,,,,,,,,,,,,OA01,no,2024-08-22_10h54.07.157,EXNAT_3_training,2024.1.0,2024-08-22 10h54.19.658026 +0200,
,,,,,,3,0,3,0,,,,,,,,,,,,,,,,,,,,,,,,,,,,,#88BA3F,False,correct rejection,None,1500,,2,4,1back_single_training1,1,,,,,,,,,,,,,,,,,,OA01,no,2024-08-22_10h54.07.157,EXNAT_3_training,2024.1.0,2024-08-22 10h54.19.658026 +0200,
,,,,,,3,0,3,0,,,,,,,,,,,,,,,,,,,,,,,,,,,,,#F989A2,False,correct rejection,None,1500,,3,4,1back_single_training1,1,,,,,,,,,,,,,,,,,,OA01,no,2024-08-22_10h54.07.157,EXNAT_3_training,2024.1.0,2024-08-22 10h54.19.658026 +0200,
,,,,,,3,0,3,0,,,,,,,,,,,,,,,,,,,,,,,,,,,,,#F989A2,True,miss,None,1500,,4,4,1back_single_training1,1,,,,,,,,,,,,,,,,,,OA01,no,2024-08-22_10h54.07.157,EXNAT_3_training,2024.1.0,2024-08-22 10h54.19.658026 +0200,
,,,,,,3,0,3,0,,,,,,,,,,,,,,,,,,,,,,,,,,,,,#88BA3F,False,false alarm,149.90997314453125,1500,,5,4,1back_single_training1,1,,,,,,,,,,,,,,,,,,OA01,no,2024-08-22_10h54.07.157,EXNAT_3_training,2024.1.0,2024-08-22 10h54.19.658026 +0200,
,,,,,,3,0,3,0,,,,,,,,,,,,,,,,,,,,,,,,,,,,,#88BA3F,True,miss,None,1500,,6,4,1back_single_training1,1,,,,,,,,,,,,,,,,,,OA01,no,2024-08-22_10h54.07.157,EXNAT_3_training,2024.1.0,2024-08-22 10h54.19.658026 +0200,
,,,,,,3,0,3,0,,,,,,,,,,,,,,,,,,,,,,,,,,,,,#2AB7EF,False,false alarm,15.877008438110352,1500,,7,4,1back_single_training1,1,,,,,,,,,,,,,,,,,,OA01,no,2024-08-22_10h54.07.157,EXNAT_3_training,2024.1.0,2024-08-22 10h54.19.658026 +0200,
,,,,,,3,0,3,0,,,,,,,,,,,,,,,,,,,,,,,,,,,,,#F989A2,False,correct rejection,None,1500,,8,4,1back_single_training1,1,,,,,,,,,,,,,,,,,,OA01,no,2024-08-22_10h54.07.157,EXNAT_3_training,2024.1.0,2024-08-22 10h54.19.658026 +0200,
,,,,,,3,0,3,0,,,,,,,,,,,,,,,,,,,,,,,,,,,,,#2AB7EF,False,correct rejection,None,1500,,9,4,1back_single_training1,1,,,,,,,,,,,,,,,,,,OA01,no,2024-08-22_10h54.07.157,EXNAT_3_training,2024.1.0,2024-08-22 10h54.19.658026 +0200,
,,,,,,3,0,3,0,,,,,,,,,,,,,,,,,,,,,,,,,,,,,#D292F3,False,correct rejection,None,1500,,10,4,1back_single_training1,1,,,,,,,,,,,,,,,,,,OA01,no,2024-08-22_10h54.07.157,EXNAT_3_training,2024.1.0,2024-08-22 10h54.19.658026 +0200,
,,,,,,3,0,3,0,,,,,,,,,,,,,,,,,,,,,,,,,,,,,#D292F3,True,hit,1117.9919242858887,1500,,11,4,1back_single_training1,1,,,,,,,,,,,,,,,,,,OA01,no,2024-08-22_10h54.07.157,EXNAT_3_training,2024.1.0,2024-08-22 10h54.19.658026 +0200,
,,,,,,3,0,3,0,,,,,,,,,,,,,,,,,,,,,,,,,,,,,#2AB7EF,False,correct rejection,None,1500,,12,4,1back_single_training1,1,,,,,,,,,,,,,,,,,,OA01,no,2024-08-22_10h54.07.157,EXNAT_3_training,2024.1.0,2024-08-22 10h54.19.658026 +0200,
,,,,,,3,0,3,0,,,,,,,,,,,,,,,,,,,,,,,,,,,,,#2AB7EF,True,hit,1036.189079284668,1500,,13,4,1back_single_training1,1,,,,,,,,,,,,,,,,,,OA01,no,2024-08-22_10h54.07.157,EXNAT_3_training,2024.1.0,2024-08-22 10h54.19.658026 +0200,
,,,,,,3,0,3,0,,,,,,,,,,,,,,,,,,,,,,,,,,,,,#88BA3F,False,correct rejection,None,1500,,14,4,1back_single_training1,1,,,,,,,,,,,,,,,,,,OA01,no,2024-08-22_10h54.07.157,EXNAT_3_training,2024.1.0,2024-08-22 10h54.19.658026 +0200,
,,,,,,3,0,3,0,,,,,,,,,,,,,,,,,,,,,,,,,,,,,#D292F3,False,correct rejection,None,1500,,15,4,1back_single_training1,1,,,,,,,,,,,,,,,,,,OA01,no,2024-08-22_10h54.07.157,EXNAT_3_training,2024.1.0,2024-08-22 10h54.19.658026 +0200,
,,,,,,3,0,3,0,,,,,,,,,,,,,,,,,,,,,,,,,,,,,#F989A2,False,correct rejection,None,1500,,16,4,1back_single_training1,1,,,,,,,,,,,,,,,,,,OA01,no,2024-08-22_10h54.07.157,EXNAT_3_training,2024.1.0,2024-08-22 10h54.19.658026 +0200,
,,,,,,3,0,3,0,,,,,,,,,,,,,,,,,,,,,,,,,,,,,#88BA3F,False,correct rejection,None,1500,,17,4,1back_single_training1,1,,,,,,,,,,,,,,,,,,OA01,no,2024-08-22_10h54.07.157,EXNAT_3_training,2024.1.0,2024-08-22 10h54.19.658026 +0200,
,,,,,,3,0,3,0,,,,,,,,,,,,,,,,,,,,,,,,,,,,,#2AB7EF,False,correct rejection,None,1500,,18,4,1back_single_training1,1,,,,,,,,,,,,,,,,,,OA01,no,2024-08-22_10h54.07.157,EXNAT_3_training,2024.1.0,2024-08-22 10h54.19.658026 +0200,
,,,,,,3,0,3,0,,,,,,,,,,,,,,,,,,,,,,,,,,,,,#2AB7EF,True,hit,1151.9010066986084,1500,,19,4,1back_single_training1,1,,,,,,,,,,,,,,,,,,OA01,no,2024-08-22_10h54.07.157,EXNAT_3_training,2024.1.0,2024-08-22 10h54.19.658026 +0200,
,,,,,,3,0,3,0,,,,,,,,,,,,,,,,,,,,,,,,,,,,,#F989A2,False,correct rejection,None,1500,,20,4,1back_single_training1,1,,,,,,,,,,,,,,,,,,OA01,no,2024-08-22_10h54.07.157,EXNAT_3_training,2024.1.0,2024-08-22 10h54.19.658026 +0200,
,,,,,,3,0,3,0,,,,,,,,,,,,,,,,,,,,,,,,,,,,,#88BA3F,False,correct rejection,None,1500,,1,6,1back_single_main,1,,,,,,,,,,,,,,,,,,OA01,no,2024-08-22_10h54.07.157,EXNAT_3_training,2024.1.0,2024-08-22 10h54.19.658026 +0200,
,,,,,,3,0,3,0,,,,,,,,,,,,,,,,,,,,,,,,,,,,,#D292F3,False,correct rejection,None,1500,,2,6,1back_single_main,1,,,,,,,,,,,,,,,,,,OA01,no,2024-08-22_10h54.07.157,EXNAT_3_training,2024.1.0,2024-08-22 10h54.19.658026 +0200,
,,,,,,3,0,3,0,,,,,,,,,,,,,,,,,,,,,,,,,,,,,#F989A2,False,correct rejection,None,1500,,3,6,1back_single_main,1,,,,,,,,,,,,,,,,,,OA01,no,2024-08-22_10h54.07.157,EXNAT_3_training,2024.1.0,2024-08-22 10h54.19.658026 +0200,
,,,,,,3,0,3,0,,,,,,,,,,,,,,,,,,,,,,,,,,,,,#88BA3F,False,correct rejection,None,1500,,4,6,1back_single_main,1,,,,,,,,,,,,,,,,,,OA01,no,2024-08-22_10h54.07.157,EXNAT_3_training,2024.1.0,2024-08-22 10h54.19.658026 +0200,
,,,,,,3,0,3,0,,,,,,,,,,,,,,,,,,,,,,,,,,,,,#D292F3,False,correct rejection,None,1500,,5,6,1back_single_main,1,,,,,,,,,,,,,,,,,,OA01,no,2024-08-22_10h54.07.157,EXNAT_3_training,2024.1.0,2024-08-22 10h54.19.658026 +0200,
,,,,,,3,0,3,0,,,,,,,,,,,,,,,,,,,,,,,,,,,,,#2AB7EF,False,correct rejection,None,1500,,6,6,1back_single_main,1,,,,,,,,,,,,,,,,,,OA01,no,2024-08-22_10h54.07.157,EXNAT_3_training,2024.1.0,2024-08-22 10h54.19.658026 +0200,
,,,,,,3,0,3,0,,,,,,,,,,,,,,,,,,,,,,,,,,,,,#2AB7EF,True,hit,483.9951992034912,1500,,7,6,1back_single_main,1,,,,,,,,,,,,,,,,,,OA01,no,2024-08-22_10h54.07.157,EXNAT_3_training,2024.1.0,2024-08-22 10h54.19.658026 +0200,
,,,,,,3,0,3,0,,,,,,,,,,,,,,,,,,,,,,,,,,,,,#88BA3F,False,correct rejection,None,1500,,8,6,1back_single_main,1,,,,,,,,,,,,,,,,,,OA01,no,2024-08-22_10h54.07.157,EXNAT_3_training,2024.1.0,2024-08-22 10h54.19.658026 +0200,
,,,,,,3,0,3,0,,,,,,,,,,,,,,,,,,,,,,,,,,,,,#D292F3,False,correct rejection,None,1500,,9,6,1back_single_main,1,,,,,,,,,,,,,,,,,,OA01,no,2024-08-22_10h54.07.157,EXNAT_3_training,2024.1.0,2024-08-22 10h54.19.658026 +0200,
,,,,,,3,0,3,0,,,,,,,,,,,,,,,,,,,,,,,,,,,,,#F989A2,False,correct rejection,None,1500,,10,6,1back_single_main,1,,,,,,,,,,,,,,,,,,OA01,no,2024-08-22_10h54.07.157,EXNAT_3_training,2024.1.0,2024-08-22 10h54.19.658026 +0200,
,,,,,,3,0,3,0,,,,,,,,,,,,,,,,,,,,,,,,,,,,,#F989A2,True,hit,569.1421031951904,1500,,11,6,1back_single_main,1,,,,,,,,,,,,,,,,,,OA01,no,2024-08-22_10h54.07.157,EXNAT_3_training,2024.1.0,2024-08-22 10h54.19.658026 +0200,
,,,,,,3,0,3,0,,,,,,,,,,,,,,,,,,,,,,,,,,,,,#2AB7EF,False,correct rejection,None,1500,,12,6,1back_single_main,1,,,,,,,,,,,,,,,,,,OA01,no,2024-08-22_10h54.07.157,EXNAT_3_training,2024.1.0,2024-08-22 10h54.19.658026 +0200,
,,,,,,3,0,3,0,,,,,,,,,,,,,,,,,,,,,,,,,,,,,#D292F3,False,correct rejection,None,1500,,13,6,1back_single_main,1,,,,,,,,,,,,,,,,,,OA01,no,2024-08-22_10h54.07.157,EXNAT_3_training,2024.1.0,2024-08-22 10h54.19.658026 +0200,
,,,,,,3,0,3,0,,,,,,,,,,,,,,,,,,,,,,,,,,,,,#2AB7EF,False,correct rejection,None,1500,,14,6,1back_single_main,1,,,,,,,,,,,,,,,,,,OA01,no,2024-08-22_10h54.07.157,EXNAT_3_training,2024.1.0,2024-08-22 10h54.19.658026 +0200,
,,,,,,3,0,3,0,,,,,,,,,,,,,,,,,,,,,,,,,,,,,#2AB7EF,True,hit,383.73303413391113,1500,,15,6,1back_single_main,1,,,,,,,,,,,,,,,,,,OA01,no,2024-08-22_10h54.07.157,EXNAT_3_training,2024.1.0,2024-08-22 10h54.19.658026 +0200,
,,,,,,3,0,3,0,,,,,,,,,,,,,,,,,,,,,,,,,,,,,#88BA3F,False,correct rejection,None,1500,,16,6,1back_single_main,1,,,,,,,,,,,,,,,,,,OA01,no,2024-08-22_10h54.07.157,EXNAT_3_training,2024.1.0,2024-08-22 10h54.19.658026 +0200,
,,,,,,3,0,3,0,,,,,,,,,,,,,,,,,,,,,,,,,,,,,#F989A2,False,correct rejection,None,1500,,17,6,1back_single_main,1,,,,,,,,,,,,,,,,,,OA01,no,2024-08-22_10h54.07.157,EXNAT_3_training,2024.1.0,2024-08-22 10h54.19.658026 +0200,
,,,,,,3,0,3,0,,,,,,,,,,,,,,,,,,,,,,,,,,,,,#F989A2,True,hit,817.9049491882324,1500,,18,6,1back_single_main,1,,,,,,,,,,,,,,,,,,OA01,no,2024-08-22_10h54.07.157,EXNAT_3_training,2024.1.0,2024-08-22 10h54.19.658026 +0200,
,,,,,,3,0,3,0,,,,,,,,,,,,,,,,,,,,,,,,,,,,,#2AB7EF,False,correct rejection,None,1500,,19,6,1back_single_main,1,,,,,,,,,,,,,,,,,,OA01,no,2024-08-22_10h54.07.157,EXNAT_3_training,2024.1.0,2024-08-22 10h54.19.658026 +0200,
,,,,,,3,0,3,0,,,,,,,,,,,,,,,,,,,,,,,,,,,,,#D292F3,False,correct rejection,None,1500,,20,6,1back_single_main,1,,,,,,,,,,,,,,,,,,OA01,no,2024-08-22_10h54.07.157,EXNAT_3_training,2024.1.0,2024-08-22 10h54.19.658026 +0200,
,,,,,,3,0,3,0,,,,,,,,,,,,,,,,,,,,,,,,,,,,,#88BA3F,False,correct rejection,None,1500,,21,6,1back_single_main,1,,,,,,,,,,,,,,,,,,OA01,no,2024-08-22_10h54.07.157,EXNAT_3_training,2024.1.0,2024-08-22 10h54.19.658026 +0200,
,,,,,,3,0,3,0,,,,,,,,,,,,,,,,,,,,,,,,,,,,,#88BA3F,True,hit,417.20104217529297,1500,,22,6,1back_single_main,1,,,,,,,,,,,,,,,,,,OA01,no,2024-08-22_10h54.07.157,EXNAT_3_training,2024.1.0,2024-08-22 10h54.19.658026 +0200,
,,,,,,3,0,3,0,,,,,,,,,,,,,,,,,,,,,,,,,,,,,#F989A2,False,correct rejection,None,1500,,23,6,1back_single_main,1,,,,,,,,,,,,,,,,,,OA01,no,2024-08-22_10h54.07.157,EXNAT_3_training,2024.1.0,2024-08-22 10h54.19.658026 +0200,
,,,,,,3,0,3,0,,,,,,,,,,,,,,,,,,,,,,,,,,,,,#D292F3,False,correct rejection,None,1500,,24,6,1back_single_main,1,,,,,,,,,,,,,,,,,,OA01,no,2024-08-22_10h54.07.157,EXNAT_3_training,2024.1.0,2024-08-22 10h54.19.658026 +0200,
,,,,,,3,0,3,0,,,,,,,,,,,,,,,,,,,,,,,,,,,,,#F989A2,False,correct rejection,None,1500,,25,6,1back_single_main,1,,,,,,,,,,,,,,,,,,OA01,no,2024-08-22_10h54.07.157,EXNAT_3_training,2024.1.0,2024-08-22 10h54.19.658026 +0200,
,,,,,,3,0,3,0,,,,,,,,,,,,,,,,,,,,,,,,,,,,,#2AB7EF,False,correct rejection,None,1500,,26,6,1back_single_main,1,,,,,,,,,,,,,,,,,,OA01,no,2024-08-22_10h54.07.157,EXNAT_3_training,2024.1.0,2024-08-22 10h54.19.658026 +0200,
,,,,,,3,0,3,0,,,,,,,,,,,,,,,,,,,,,,,,,,,,,#88BA3F,False,correct rejection,None,1500,,27,6,1back_single_main,1,,,,,,,,,,,,,,,,,,OA01,no,2024-08-22_10h54.07.157,EXNAT_3_training,2024.1.0,2024-08-22 10h54.19.658026 +0200,
,,,,,,3,0,3,0,,,,,,,,,,,,,,,,,,,,,,,,,,,,,#88BA3F,True,hit,617.5060272216797,1500,,28,6,1back_single_main,1,,,,,,,,,,,,,,,,,,OA01,no,2024-08-22_10h54.07.157,EXNAT_3_training,2024.1.0,2024-08-22 10h54.19.658026 +0200,
,,,,,,3,0,3,0,,,,,,,,,,,,,,,,,,,,,,,,,,,,,#D292F3,False,correct rejection,None,1500,,29,6,1back_single_main,1,,,,,,,,,,,,,,,,,,OA01,no,2024-08-22_10h54.07.157,EXNAT_3_training,2024.1.0,2024-08-22 10h54.19.658026 +0200,
,,,,,,3,0,3,0,,,,,,,,,,,,,,,,,,,,,,,,,,,,,#2AB7EF,False,correct rejection,None,1500,,30,6,1back_single_main,1,,,,,,,,,,,,,,,,,,OA01,no,2024-08-22_10h54.07.157,EXNAT_3_training,2024.1.0,2024-08-22 10h54.19.658026 +0200,
,,,,,,3,0,3,0,,,,,,,,,,,,,,,,,,,,,,,,,,,,,#F989A2,False,correct rejection,None,1500,,31,6,1back_single_main,1,,,,,,,,,,,,,,,,,,OA01,no,2024-08-22_10h54.07.157,EXNAT_3_training,2024.1.0,2024-08-22 10h54.19.658026 +0200,
,,,,,,3,0,3,0,,,,,,,,,,,,,,,,,,,,,,,,,,,,,#D292F3,False,correct rejection,None,1500,,32,6,1back_single_main,1,,,,,,,,,,,,,,,,,,OA01,no,2024-08-22_10h54.07.157,EXNAT_3_training,2024.1.0,2024-08-22 10h54.19.658026 +0200,
,,,,,,3,0,3,0,,,,,,,,,,,,,,,,,,,,,,,,,,,,,#D292F3,True,hit,650.4719257354736,1500,,33,6,1back_single_main,1,,,,,,,,,,,,,,,,,,OA01,no,2024-08-22_10h54.07.157,EXNAT_3_training,2024.1.0,2024-08-22 10h54.19.658026 +0200,
,,,,,,3,0,3,0,,,,,,,,,,,,,,,,,,,,,,,,,,,,,#F989A2,False,correct rejection,None,1500,,34,6,1back_single_main,1,,,,,,,,,,,,,,,,,,OA01,no,2024-08-22_10h54.07.157,EXNAT_3_training,2024.1.0,2024-08-22 10h54.19.658026 +0200,
,,,,,,3,0,3,0,,,,,,,,,,,,,,,,,,,,,,,,,,,,,#88BA3F,False,correct rejection,None,1500,,35,6,1back_single_main,1,,,,,,,,,,,,,,,,,,OA01,no,2024-08-22_10h54.07.157,EXNAT_3_training,2024.1.0,2024-08-22 10h54.19.658026 +0200,
,,,,,,3,0,3,0,,,,,,,,,,,,,,,,,,,,,,,,,,,,,#2AB7EF,False,correct rejection,None,1500,,36,6,1back_single_main,1,,,,,,,,,,,,,,,,,,OA01,no,2024-08-22_10h54.07.157,EXNAT_3_training,2024.1.0,2024-08-22 10h54.19.658026 +0200,
,,,,,,3,0,3,0,,,,,,,,,,,,,,,,,,,,,,,,,,,,,#D292F3,False,correct rejection,None,1500,,37,6,1back_single_main,1,,,,,,,,,,,,,,,,,,OA01,no,2024-08-22_10h54.07.157,EXNAT_3_training,2024.1.0,2024-08-22 10h54.19.658026 +0200,
,,,,,,3,0,3,0,,,,,,,,,,,,,,,,,,,,,,,,,,,,,#88BA3F,False,correct rejection,None,1500,,38,6,1back_single_main,1,,,,,,,,,,,,,,,,,,OA01,no,2024-08-22_10h54.07.157,EXNAT_3_training,2024.1.0,2024-08-22 10h54.19.658026 +0200,
,,,,,,3,0,3,0,,,,,,,,,,,,,,,,,,,,,,,,,,,,,#F989A2,False,correct rejection,None,1500,,39,6,1back_single_main,1,,,,,,,,,,,,,,,,,,OA01,no,2024-08-22_10h54.07.157,EXNAT_3_training,2024.1.0,2024-08-22 10h54.19.658026 +0200,
,,,,,,3,0,3,0,,,,,,,,,,,,,,,,,,,,,,,,,,,,,#2AB7EF,False,correct rejection,None,1500,,40,6,1back_single_main,1,,,,,,,,,,,,,,,,,,OA01,no,2024-08-22_10h54.07.157,EXNAT_3_training,2024.1.0,2024-08-22 10h54.19.658026 +0200,
,,,,,,3,0,3,0,,,,,,,,,,,,,,,,,,,,,,,,,,,,,#88BA3F,False,correct rejection,None,1500,,41,6,1back_single_main,1,,,,,,,,,,,,,,,,,,OA01,no,2024-08-22_10h54.07.157,EXNAT_3_training,2024.1.0,2024-08-22 10h54.19.658026 +0200,
,,,,,,3,0,3,0,,,,,,,,,,,,,,,,,,,,,,,,,,,,,#F989A2,False,correct rejection,None,1500,,42,6,1back_single_main,1,,,,,,,,,,,,,,,,,,OA01,no,2024-08-22_10h54.07.157,EXNAT_3_training,2024.1.0,2024-08-22 10h54.19.658026 +0200,
,,,,,,3,0,3,0,,,,,,,,,,,,,,,,,,,,,,,,,,,,,#2AB7EF,False,correct rejection,None,1500,,43,6,1back_single_main,1,,,,,,,,,,,,,,,,,,OA01,no,2024-08-22_10h54.07.157,EXNAT_3_training,2024.1.0,2024-08-22 10h54.19.658026 +0200,
,,,,,,3,0,3,0,,,,,,,,,,,,,,,,,,,,,,,,,,,,,#2AB7EF,True,hit,433.3479404449463,1500,,44,6,1back_single_main,1,,,,,,,,,,,,,,,,,,OA01,no,2024-08-22_10h54.07.157,EXNAT_3_training,2024.1.0,2024-08-22 10h54.19.658026 +0200,
,,,,,,3,0,3,0,,,,,,,,,,,,,,,,,,,,,,,,,,,,,#D292F3,False,correct rejection,None,1500,,45,6,1back_single_main,1,,,,,,,,,,,,,,,,,,OA01,no,2024-08-22_10h54.07.157,EXNAT_3_training,2024.1.0,2024-08-22 10h54.19.658026 +0200,
,,,,,,3,0,3,0,,,,,,,,,,,,,,,,,,,,,,,,,,,,,#D292F3,True,hit,435.0590705871582,1500,,46,6,1back_single_main,1,,,,,,,,,,,,,,,,,,OA01,no,2024-08-22_10h54.07.157,EXNAT_3_training,2024.1.0,2024-08-22 10h54.19.658026 +0200,
,,,,,,3,0,3,0,,,,,,,,,,,,,,,,,,,,,,,,,,,,,#F989A2,False,correct rejection,None,1500,,47,6,1back_single_main,1,,,,,,,,,,,,,,,,,,OA01,no,2024-08-22_10h54.07.157,EXNAT_3_training,2024.1.0,2024-08-22 10h54.19.658026 +0200,
,,,,,,3,0,3,0,,,,,,,,,,,,,,,,,,,,,,,,,,,,,#88BA3F,False,correct rejection,None,1500,,48,6,1back_single_main,1,,,,,,,,,,,,,,,,,,OA01,no,2024-08-22_10h54.07.157,EXNAT_3_training,2024.1.0,2024-08-22 10h54.19.658026 +0200,
,,,,,,3,0,3,0,,,,,,,,,,,,,,,,,,,,,,,,,,,,,#D292F3,False,correct rejection,None,1500,,49,6,1back_single_main,1,,,,,,,,,,,,,,,,,,OA01,no,2024-08-22_10h54.07.157,EXNAT_3_training,2024.1.0,2024-08-22 10h54.19.658026 +0200,
,,,,,,3,0,3,0,,,,,,,,,,,,,,,,,,,,,,,,,,,,,#2AB7EF,False,correct rejection,None,1500,,50,6,1back_single_main,1,,,,,,,,,,,,,,,,,,OA01,no,2024-08-22_10h54.07.157,EXNAT_3_training,2024.1.0,2024-08-22 10h54.19.658026 +0200,
,,,,,,3,0,3,0,,,,,,,,,,,,,,,,,,,,,,,,,,,,,#F989A2,False,correct rejection,None,1500,,51,6,1back_single_main,1,,,,,,,,,,,,,,,,,,OA01,no,2024-08-22_10h54.07.157,EXNAT_3_training,2024.1.0,2024-08-22 10h54.19.658026 +0200,
,,,,,,3,0,3,0,,,,,,,,,,,,,,,,,,,,,,,,,,,,,#2AB7EF,False,correct rejection,None,1500,,52,6,1back_single_main,1,,,,,,,,,,,,,,,,,,OA01,no,2024-08-22_10h54.07.157,EXNAT_3_training,2024.1.0,2024-08-22 10h54.19.658026 +0200,
,,,,,,3,0,3,0,,,,,,,,,,,,,,,,,,,,,,,,,,,,,#F989A2,False,correct rejection,None,1500,,53,6,1back_single_main,1,,,,,,,,,,,,,,,,,,OA01,no,2024-08-22_10h54.07.157,EXNAT_3_training,2024.1.0,2024-08-22 10h54.19.658026 +0200,
,,,,,,3,0,3,0,,,,,,,,,,,,,,,,,,,,,,,,,,,,,#2AB7EF,False,correct rejection,None,1500,,54,6,1back_single_main,1,,,,,,,,,,,,,,,,,,OA01,no,2024-08-22_10h54.07.157,EXNAT_3_training,2024.1.0,2024-08-22 10h54.19.658026 +0200,
,,,,,,3,0,3,0,,,,,,,,,,,,,,,,,,,,,,,,,,,,,#D292F3,False,correct rejection,None,1500,,55,6,1back_single_main,1,,,,,,,,,,,,,,,,,,OA01,no,2024-08-22_10h54.07.157,EXNAT_3_training,2024.1.0,2024-08-22 10h54.19.658026 +0200,
,,,,,,3,0,3,0,,,,,,,,,,,,,,,,,,,,,,,,,,,,,#F989A2,False,correct rejection,None,1500,,56,6,1back_single_main,1,,,,,,,,,,,,,,,,,,OA01,no,2024-08-22_10h54.07.157,EXNAT_3_training,2024.1.0,2024-08-22 10h54.19.658026 +0200,
,,,,,,3,0,3,0,,,,,,,,,,,,,,,,,,,,,,,,,,,,,#88BA3F,False,correct rejection,None,1500,,57,6,1back_single_main,1,,,,,,,,,,,,,,,,,,OA01,no,2024-08-22_10h54.07.157,EXNAT_3_training,2024.1.0,2024-08-22 10h54.19.658026 +0200,
,,,,,,3,0,3,0,,,,,,,,,,,,,,,,,,,,,,,,,,,,,#D292F3,False,correct rejection,None,1500,,58,6,1back_single_main,1,,,,,,,,,,,,,,,,,,OA01,no,2024-08-22_10h54.07.157,EXNAT_3_training,2024.1.0,2024-08-22 10h54.19.658026 +0200,
,,,,,,3,0,3,0,,,,,,,,,,,,,,,,,,,,,,,,,,,,,#88BA3F,False,correct rejection,None,1500,,59,6,1back_single_main,1,,,,,,,,,,,,,,,,,,OA01,no,2024-08-22_10h54.07.157,EXNAT_3_training,2024.1.0,2024-08-22 10h54.19.658026 +0200,
,,,,,,3,0,3,0,,,,,,,,,,,,,,,,,,,,,,,,,,,,,#88BA3F,True,hit,417.0339107513428,1500,,60,6,1back_single_main,1,,,,,,,,,,,,,,,,,,OA01,no,2024-08-22_10h54.07.157,EXNAT_3_training,2024.1.0,2024-08-22 10h54.19.658026 +0200,
,,,,,,3,0,3,0,,,,,,,,,,,,,,,,,,,,,,,,,,,,,#88BA3F,True,miss,None,1500,,61,6,1back_single_main,1,,,,,,,,,,,,,,,,,,OA01,no,2024-08-22_10h54.07.157,EXNAT_3_training,2024.1.0,2024-08-22 10h54.19.658026 +0200,
,,,,,,3,0,3,0,,,,,,,,,,,,,,,,,,,,,,,,,,,,,#2AB7EF,False,correct rejection,None,1500,,62,6,1back_single_main,1,,,,,,,,,,,,,,,,,,OA01,no,2024-08-22_10h54.07.157,EXNAT_3_training,2024.1.0,2024-08-22 10h54.19.658026 +0200,
,,,,,,3,0,3,0,,,,,,,,,,,,,,,,,,,,,,,,,,,,,#F989A2,False,correct rejection,None,1500,,63,6,1back_single_main,1,,,,,,,,,,,,,,,,,,OA01,no,2024-08-22_10h54.07.157,EXNAT_3_training,2024.1.0,2024-08-22 10h54.19.658026 +0200,
,,,,,,3,0,3,0,,,,,,,,,,,,,,,,,,,,,,,,,,,,,#88BA3F,False,correct rejection,None,1500,,64,6,1back_single_main,1,,,,,,,,,,,,,,,,,,OA01,no,2024-08-22_10h54.07.157,EXNAT_3_training,2024.1.0,2024-08-22 10h54.19.658026 +0200,
,,,,,,3,0,3,0,,,,,,,,,,,,,,,,,,,,,,,,,,,,,#D292F3,False,correct rejection,None,1500,,65,6,1back_single_main,1,,,,,,,,,,,,,,,,,,OA01,no,2024-08-22_10h54.07.157,EXNAT_3_training,2024.1.0,2024-08-22 10h54.19.658026 +0200,
,,,,,,3,0,3,0,,,,,,,,,,,,,,,,,,,,,,,,,,,,,#F989A2,False,correct rejection,None,1500,,66,6,1back_single_main,1,,,,,,,,,,,,,,,,,,OA01,no,2024-08-22_10h54.07.157,EXNAT_3_training,2024.1.0,2024-08-22 10h54.19.658026 +0200,
,,,,,,3,0,3,0,,,,,,,,,,,,,,,,,,,,,,,,,,,,,#F989A2,True,hit,466.7339324951172,1500,,67,6,1back_single_main,1,,,,,,,,,,,,,,,,,,OA01,no,2024-08-22_10h54.07.157,EXNAT_3_training,2024.1.0,2024-08-22 10h54.19.658026 +0200,
,,,,,,3,0,3,0,,,,,,,,,,,,,,,,,,,,,,,,,,,,,#2AB7EF,False,correct rejection,None,1500,,68,6,1back_single_main,1,,,,,,,,,,,,,,,,,,OA01,no,2024-08-22_10h54.07.157,EXNAT_3_training,2024.1.0,2024-08-22 10h54.19.658026 +0200,
,,,,,,3,0,3,0,,,,,,,,,,,,,,,,,,,,,,,,,,,,,#D292F3,False,correct rejection,None,1500,,69,6,1back_single_main,1,,,,,,,,,,,,,,,,,,OA01,no,2024-08-22_10h54.07.157,EXNAT_3_training,2024.1.0,2024-08-22 10h54.19.658026 +0200,
,,,,,,3,0,3,0,,,,,,,,,,,,,,,,,,,,,,,,,,,,,#88BA3F,False,correct rejection,None,1500,,70,6,1back_single_main,1,,,,,,,,,,,,,,,,,,OA01,no,2024-08-22_10h54.07.157,EXNAT_3_training,2024.1.0,2024-08-22 10h54.19.658026 +0200,
,,,,,,3,0,3,0,,,,,,,,,,,,,,,,,,,,,,,,,,,,,#88BA3F,True,hit,435.04810333251953,1500,,71,6,1back_single_main,1,,,,,,,,,,,,,,,,,,OA01,no,2024-08-22_10h54.07.157,EXNAT_3_training,2024.1.0,2024-08-22 10h54.19.658026 +0200,
,,,,,,3,0,3,0,,,,,,,,,,,,,,,,,,,,,,,,,,,,,#2AB7EF,False,correct rejection,None,1500,,72,6,1back_single_main,1,,,,,,,,,,,,,,,,,,OA01,no,2024-08-22_10h54.07.157,EXNAT_3_training,2024.1.0,2024-08-22 10h54.19.658026 +0200,
,,,,,,3,0,3,0,,,,,,,,,,,,,,,,,,,,,,,,,,,,,#D292F3,False,correct rejection,None,1500,,73,6,1back_single_main,1,,,,,,,,,,,,,,,,,,OA01,no,2024-08-22_10h54.07.157,EXNAT_3_training,2024.1.0,2024-08-22 10h54.19.658026 +0200,
,,,,,,3,0,3,0,,,,,,,,,,,,,,,,,,,,,,,,,,,,,#2AB7EF,False,correct rejection,None,1500,,74,6,1back_single_main,1,,,,,,,,,,,,,,,,,,OA01,no,2024-08-22_10h54.07.157,EXNAT_3_training,2024.1.0,2024-08-22 10h54.19.658026 +0200,
,,,,,,3,0,3,0,,,,,,,,,,,,,,,,,,,,,,,,,,,,,#2AB7EF,True,hit,383.7449550628662,1500,,75,6,1back_single_main,1,,,,,,,,,,,,,,,,,,OA01,no,2024-08-22_10h54.07.157,EXNAT_3_training,2024.1.0,2024-08-22 10h54.19.658026 +0200,
,,,,,,3,0,3,0,,,,,,,,,,,,,,,,,,,,,,,,,,,,,#D292F3,False,correct rejection,None,1500,,76,6,1back_single_main,1,,,,,,,,,,,,,,,,,,OA01,no,2024-08-22_10h54.07.157,EXNAT_3_training,2024.1.0,2024-08-22 10h54.19.658026 +0200,
,,,,,,3,0,3,0,,,,,,,,,,,,,,,,,,,,,,,,,,,,,#F989A2,False,false alarm,534.092903137207,1500,,77,6,1back_single_main,1,,,,,,,,,,,,,,,,,,OA01,no,2024-08-22_10h54.07.157,EXNAT_3_training,2024.1.0,2024-08-22 10h54.19.658026 +0200,
,,,,,,3,0,3,0,,,,,,,,,,,,,,,,,,,,,,,,,,,,,#88BA3F,False,correct rejection,None,1500,,78,6,1back_single_main,1,,,,,,,,,,,,,,,,,,OA01,no,2024-08-22_10h54.07.157,EXNAT_3_training,2024.1.0,2024-08-22 10h54.19.658026 +0200,
,,,,,,3,0,3,0,,,,,,,,,,,,,,,,,,,,,,,,,,,,,#F989A2,False,correct rejection,None,1500,,79,6,1back_single_main,1,,,,,,,,,,,,,,,,,,OA01,no,2024-08-22_10h54.07.157,EXNAT_3_training,2024.1.0,2024-08-22 10h54.19.658026 +0200,
,,,,,,3,0,3,0,,,,,,,,,,,,,,,,,,,,,,,,,,,,,#88BA3F,False,correct rejection,None,1500,,80,6,1back_single_main,1,,,,,,,,,,,,,,,,,,OA01,no,2024-08-22_10h54.07.157,EXNAT_3_training,2024.1.0,2024-08-22 10h54.19.658026 +0200,
,,,,,,3,0,3,0,,,,,,,,,,,,,,,,,,,,,,,,,,,,,#2AB7EF,False,correct rejection,None,1500,,81,6,1back_single_main,1,,,,,,,,,,,,,,,,,,OA01,no,2024-08-22_10h54.07.157,EXNAT_3_training,2024.1.0,2024-08-22 10h54.19.658026 +0200,
,,,,,,3,0,3,0,,,,,,,,,,,,,,,,,,,,,,,,,,,,,#D292F3,False,correct rejection,None,1500,,82,6,1back_single_main,1,,,,,,,,,,,,,,,,,,OA01,no,2024-08-22_10h54.07.157,EXNAT_3_training,2024.1.0,2024-08-22 10h54.19.658026 +0200,
,,,,,,3,0,3,0,,,,,,,,,,,,,,,,,,,,,,,,,,,,,#F989A2,False,correct rejection,None,1500,,83,6,1back_single_main,1,,,,,,,,,,,,,,,,,,OA01,no,2024-08-22_10h54.07.157,EXNAT_3_training,2024.1.0,2024-08-22 10h54.19.658026 +0200,
,,,,,,3,0,3,0,,,,,,,,,,,,,,,,,,,,,,,,,,,,,#88BA3F,False,correct rejection,None,1500,,84,6,1back_single_main,1,,,,,,,,,,,,,,,,,,OA01,no,2024-08-22_10h54.07.157,EXNAT_3_training,2024.1.0,2024-08-22 10h54.19.658026 +0200,
,,,,,,3,0,3,0,,,,,,,,,,,,,,,,,,,,,,,,,,,,,#88BA3F,True,hit,500.09799003601074,1500,,85,6,1back_single_main,1,,,,,,,,,,,,,,,,,,OA01,no,2024-08-22_10h54.07.157,EXNAT_3_training,2024.1.0,2024-08-22 10h54.19.658026 +0200,
,,,,,,3,0,3,0,,,,,,,,,,,,,,,,,,,,,,,,,,,,,#D292F3,False,correct rejection,None,1500,,86,6,1back_single_main,1,,,,,,,,,,,,,,,,,,OA01,no,2024-08-22_10h54.07.157,EXNAT_3_training,2024.1.0,2024-08-22 10h54.19.658026 +0200,
,,,,,,3,0,3,0,,,,,,,,,,,,,,,,,,,,,,,,,,,,,#2AB7EF,False,correct rejection,None,1500,,87,6,1back_single_main,1,,,,,,,,,,,,,,,,,,OA01,no,2024-08-22_10h54.07.157,EXNAT_3_training,2024.1.0,2024-08-22 10h54.19.658026 +0200,
,,,,,,3,0,3,0,,,,,,,,,,,,,,,,,,,,,,,,,,,,,#88BA3F,False,correct rejection,None,1500,,88,6,1back_single_main,1,,,,,,,,,,,,,,,,,,OA01,no,2024-08-22_10h54.07.157,EXNAT_3_training,2024.1.0,2024-08-22 10h54.19.658026 +0200,
,,,,,,3,0,3,0,,,,,,,,,,,,,,,,,,,,,,,,,,,,,#F989A2,False,correct rejection,None,1500,,89,6,1back_single_main,1,,,,,,,,,,,,,,,,,,OA01,no,2024-08-22_10h54.07.157,EXNAT_3_training,2024.1.0,2024-08-22 10h54.19.658026 +0200,
,,,,,,3,0,3,0,,,,,,,,,,,,,,,,,,,,,,,,,,,,,#D292F3,False,correct rejection,None,1500,,90,6,1back_single_main,1,,,,,,,,,,,,,,,,,,OA01,no,2024-08-22_10h54.07.157,EXNAT_3_training,2024.1.0,2024-08-22 10h54.19.658026 +0200,
,,,,,,3,0,3,0,,,,,,,,,,,,,,,,,,,,,,,,,,,947.5755679607391,947.5755770206451,#2AB7EF,False,correct rejection,None,2000,text_06,1,7,1back_dual_main_click,1,Julia,,,,,,,,,,,,,,,,,OA01,no,2024-08-22_10h54.07.157,EXNAT_3_training,2024.1.0,2024-08-22 10h54.19.658026 +0200,
