DisplayImage	corrAns	ishihara_pics.thisRepN	ishihara_pics.thisTrialN	ishihara_pics.thisN	ishihara_pics.thisIndex	blocks.thisRepN	blocks.thisTrialN	blocks.thisN	blocks.thisIndex	thisRow.t	notes	Settings.started	Settings.stopped	demographics.started	demographics.stopped	demographic_form.index	demographic_form.itemText	demographic_form.type	demographic_form.font	demographic_form.markerColor	demographic_form.response	demographic_form.rt	education.started	education.stopped	edu_form.index	edu_form.itemText	edu_form.type	edu_form.font	edu_form.markerColor	edu_form.response	edu_form.rt	Ishihara.started	Ishihara.stopped	ishihara_number.text	no_text_blocks_self_paced.started	no_text_blocks_self_paced.stopped	text_blocks_self_paced.started	colour	target	nback_response	nback_RT	duration	text_nr	trial_nr	block_nr	block_name	block_kind	word	global_onset_time	question	button_pressed	chosen_ans	ans_correct	block_nr_exp	n-back_level	text_blocks_self_paced.stopped	text_blocks_paced.started	text_blocks_paced.stopped	no_text_blocks_paced.started	no_text_blocks_paced.stopped	pseudotext.started	pseudotext.stopped	curr_0back_target	RT_per_letter_baseline	RT_per_letter_0back	RT_per_letter_1bck	RT_per_letter_2bck	RT_per_rect_1back_single	RT_per_rect_2back_single	end.started	end.stopped	participant	testing_mode	date	expName	psychopyVersion	expStart	
												0.02665996551513672	0.0270230770111084																																																											OA02	no	2024-08-26_07h59.46.596	EXNAT_3_training	2024.1.0	2024-08-26 08h00.06.688381 +0200	
														0.027035951614379883	46.897886991500854	0.0	Willkommen zum Experiment!	heading	None	None																																																				OA02	no	2024-08-26_07h59.46.596	EXNAT_3_training	2024.1.0	2024-08-26 08h00.06.688381 +0200	
																0.0	Bitte beantworten Sie zunächst die folgenden Fragen:	description	None	None																																																				OA02	no	2024-08-26_07h59.46.596	EXNAT_3_training	2024.1.0	2024-08-26 08h00.06.688381 +0200	
																gender	Welches Geschlecht steht in Ihrem Ausweis?	radio	None	None	Weiblich	20.35160207748413																																																		OA02	no	2024-08-26_07h59.46.596	EXNAT_3_training	2024.1.0	2024-08-26 08h00.06.688381 +0200	
																age	Wie alt sind Sie?	free text	None	None	66	None																																																		OA02	no	2024-08-26_07h59.46.596	EXNAT_3_training	2024.1.0	2024-08-26 08h00.06.688381 +0200	
																language	Ist Deutsch Ihre Muttersprache?	radio	None	None	Ja	24.78801202774048																																																		OA02	no	2024-08-26_07h59.46.596	EXNAT_3_training	2024.1.0	2024-08-26 08h00.06.688381 +0200	
																dyslexia	Haben Sie eine Leseschwäche?	radio	None	None	Nein	33.34379982948303																																																		OA02	no	2024-08-26_07h59.46.596	EXNAT_3_training	2024.1.0	2024-08-26 08h00.06.688381 +0200	
																vision_glasses	Tragen Sie eine Brille?	radio	None	None	Ja	14.967761039733887																																																		OA02	no	2024-08-26_07h59.46.596	EXNAT_3_training	2024.1.0	2024-08-26 08h00.06.688381 +0200	
																vision_lenses	Tragen Sie Kontaktlinsen?	radio	None	None	Nein	18.35524606704712																																																		OA02	no	2024-08-26_07h59.46.596	EXNAT_3_training	2024.1.0	2024-08-26 08h00.06.688381 +0200	
																handedness	Sind Sie rechtshändig?	radio	None	None	Ja	10.700753927230835																																																		OA02	no	2024-08-26_07h59.46.596	EXNAT_3_training	2024.1.0	2024-08-26 08h00.06.688381 +0200	
																																																																								OA02	no	2024-08-26_07h59.46.596	EXNAT_3_training	2024.1.0	2024-08-26 08h00.06.688381 +0200	
																							46.89805006980896	93.32149505615234	0.0	Bitte beantworten Sie die folgenden Fragen zu Ihrer Ausbildung:	description	None	None																																											OA02	no	2024-08-26_07h59.46.596	EXNAT_3_training	2024.1.0	2024-08-26 08h00.06.688381 +0200	
																									education	Was ist Ihr höchster Bildungsabschluss?	radio	None	None	abgeschlossenes Studium	3.4511568546295166																																									OA02	no	2024-08-26_07h59.46.596	EXNAT_3_training	2024.1.0	2024-08-26 08h00.06.688381 +0200	
																									edu_intro	Wie viele Jahre verbrachten Sie insgesamt mit:	description	None	None																																											OA02	no	2024-08-26_07h59.46.596	EXNAT_3_training	2024.1.0	2024-08-26 08h00.06.688381 +0200	
																									edu_school_years	Schule	free text	None	None	10	None																																									OA02	no	2024-08-26_07h59.46.596	EXNAT_3_training	2024.1.0	2024-08-26 08h00.06.688381 +0200	
																									edu_eveningschool_years	Abendschule	free text	None	None	0	None																																									OA02	no	2024-08-26_07h59.46.596	EXNAT_3_training	2024.1.0	2024-08-26 08h00.06.688381 +0200	
																									edu_training_years	Ausbildung	free text	None	None	3	None																																									OA02	no	2024-08-26_07h59.46.596	EXNAT_3_training	2024.1.0	2024-08-26 08h00.06.688381 +0200	
																									edu_training_GDR_years	Fachschule	free text	None	None	0	None																																									OA02	no	2024-08-26_07h59.46.596	EXNAT_3_training	2024.1.0	2024-08-26 08h00.06.688381 +0200	
																									edu_uni_years	Universität/Hochschule	free text	None	None	3	None																																									OA02	no	2024-08-26_07h59.46.596	EXNAT_3_training	2024.1.0	2024-08-26 08h00.06.688381 +0200	
																									edu_other_years	Sonstiges	free text	None	None	0	None																																									OA02	no	2024-08-26_07h59.46.596	EXNAT_3_training	2024.1.0	2024-08-26 08h00.06.688381 +0200	
																									edu_profession	Was ist Ihr derzeitiger/letzter Beruf?	free text	None	None	berufsschullehrerin	None																																									OA02	no	2024-08-26_07h59.46.596	EXNAT_3_training	2024.1.0	2024-08-26 08h00.06.688381 +0200	
																																																																								OA02	no	2024-08-26_07h59.46.596	EXNAT_3_training	2024.1.0	2024-08-26 08h00.06.688381 +0200	
																																																																								OA02	no	2024-08-26_07h59.46.596	EXNAT_3_training	2024.1.0	2024-08-26 08h00.06.688381 +0200	
Stimuli_and_Resources/Ishihara_Colour_Vision_Test/ishihara_test4_78.png	78	0	0	0	3					101.03577709197998																						100.97797417640686	109.82068610191345	78																																						OA02	no	2024-08-26_07h59.46.596	EXNAT_3_training	2024.1.0	2024-08-26 08h00.06.688381 +0200	
Stimuli_and_Resources/Ishihara_Colour_Vision_Test/ishihara_test6_15.png	15	0	1	1	5					110.87160801887512																						110.82175397872925	114.31114196777344	15																																						OA02	no	2024-08-26_07h59.46.596	EXNAT_3_training	2024.1.0	2024-08-26 08h00.06.688381 +0200	
Stimuli_and_Resources/Ishihara_Colour_Vision_Test/ishihara_test1_70.png	70	0	2	2	0					115.36350107192993																						115.31386613845825	121.32475399971008	70																																						OA02	no	2024-08-26_07h59.46.596	EXNAT_3_training	2024.1.0	2024-08-26 08h00.06.688381 +0200	
Stimuli_and_Resources/Ishihara_Colour_Vision_Test/ishihara_test5_23.png	23	0	3	3	4					122.37714409828186																						122.32748818397522	125.0335681438446	23																																						OA02	no	2024-08-26_07h59.46.596	EXNAT_3_training	2024.1.0	2024-08-26 08h00.06.688381 +0200	
Stimuli_and_Resources/Ishihara_Colour_Vision_Test/ishihara_test2_17.png	17	0	4	4	1					126.08303499221802																						126.03374695777893	129.03975701332092	17																																						OA02	no	2024-08-26_07h59.46.596	EXNAT_3_training	2024.1.0	2024-08-26 08h00.06.688381 +0200	
Stimuli_and_Resources/Ishihara_Colour_Vision_Test/ishihara_test3_21.png	21	0	5	5	2					130.09211611747742																						130.04247117042542	133.06419396400452	21																																						OA02	no	2024-08-26_07h59.46.596	EXNAT_3_training	2024.1.0	2024-08-26 08h00.06.688381 +0200	
						0	0	0	0	134.0821990966797																									134.06611704826355	134.08228015899658	134.08229112625122	#D292F3	None	None	None	1500	reading_bl_training_text	1	0	Reading_Baseline_training_click	None	Auf																								OA02	no	2024-08-26_07h59.46.596	EXNAT_3_training	2024.1.0	2024-08-26 08h00.06.688381 +0200	
						0	0	0	0																													#D292F3	None	None	None	999.459981918335	reading_bl_training_text	2	0	Reading_Baseline_training_click	None	dem																								OA02	no	2024-08-26_07h59.46.596	EXNAT_3_training	2024.1.0	2024-08-26 08h00.06.688381 +0200	
						0	0	0	0																													#F989A2	None	None	None	1500	reading_bl_training_text	3	0	Reading_Baseline_training_click	None	großen																								OA02	no	2024-08-26_07h59.46.596	EXNAT_3_training	2024.1.0	2024-08-26 08h00.06.688381 +0200	
						0	0	0	0																													#F989A2	None	None	None	1500	reading_bl_training_text	4	0	Reading_Baseline_training_click	None	"Passagierdampfer,"																								OA02	no	2024-08-26_07h59.46.596	EXNAT_3_training	2024.1.0	2024-08-26 08h00.06.688381 +0200	
						0	0	0	0																													#D292F3	None	None	None	1500	reading_bl_training_text	5	0	Reading_Baseline_training_click	None	der																								OA02	no	2024-08-26_07h59.46.596	EXNAT_3_training	2024.1.0	2024-08-26 08h00.06.688381 +0200	
						0	0	0	0																													#2AB7EF	None	None	None	1500	reading_bl_training_text	6	0	Reading_Baseline_training_click	None	um																								OA02	no	2024-08-26_07h59.46.596	EXNAT_3_training	2024.1.0	2024-08-26 08h00.06.688381 +0200	
						0	0	0	0																													#88BA3F	None	None	None	1500	reading_bl_training_text	7	0	Reading_Baseline_training_click	None	Mitternacht																								OA02	no	2024-08-26_07h59.46.596	EXNAT_3_training	2024.1.0	2024-08-26 08h00.06.688381 +0200	
						0	0	0	0																													#2AB7EF	None	None	None	1500	reading_bl_training_text	8	0	Reading_Baseline_training_click	None	von																								OA02	no	2024-08-26_07h59.46.596	EXNAT_3_training	2024.1.0	2024-08-26 08h00.06.688381 +0200	
						0	0	0	0																													#2AB7EF	None	None	None	1500	reading_bl_training_text	9	0	Reading_Baseline_training_click	None	New																								OA02	no	2024-08-26_07h59.46.596	EXNAT_3_training	2024.1.0	2024-08-26 08h00.06.688381 +0200	
						0	0	0	0																													#F989A2	None	None	None	1500	reading_bl_training_text	10	0	Reading_Baseline_training_click	None	York																								OA02	no	2024-08-26_07h59.46.596	EXNAT_3_training	2024.1.0	2024-08-26 08h00.06.688381 +0200	
						0	0	0	0																													#88BA3F	None	None	None	1500	reading_bl_training_text	11	0	Reading_Baseline_training_click	None	nach																								OA02	no	2024-08-26_07h59.46.596	EXNAT_3_training	2024.1.0	2024-08-26 08h00.06.688381 +0200	
						0	0	0	0																													#88BA3F	None	None	None	1500	reading_bl_training_text	12	0	Reading_Baseline_training_click	None	Buenos																								OA02	no	2024-08-26_07h59.46.596	EXNAT_3_training	2024.1.0	2024-08-26 08h00.06.688381 +0200	
						0	0	0	0																													#F989A2	None	None	None	1500	reading_bl_training_text	13	0	Reading_Baseline_training_click	None	Aires																								OA02	no	2024-08-26_07h59.46.596	EXNAT_3_training	2024.1.0	2024-08-26 08h00.06.688381 +0200	
						0	0	0	0																													#D292F3	None	None	None	1500	reading_bl_training_text	14	0	Reading_Baseline_training_click	None	abgehen																								OA02	no	2024-08-26_07h59.46.596	EXNAT_3_training	2024.1.0	2024-08-26 08h00.06.688381 +0200	
						0	0	0	0																													#88BA3F	None	None	None	1500	reading_bl_training_text	15	0	Reading_Baseline_training_click	None	"sollte,"																								OA02	no	2024-08-26_07h59.46.596	EXNAT_3_training	2024.1.0	2024-08-26 08h00.06.688381 +0200	
						0	0	0	0																													#F989A2	None	None	None	1500	reading_bl_training_text	16	0	Reading_Baseline_training_click	None	herrschte																								OA02	no	2024-08-26_07h59.46.596	EXNAT_3_training	2024.1.0	2024-08-26 08h00.06.688381 +0200	
						0	0	0	0																													#88BA3F	None	None	None	1500	reading_bl_training_text	17	0	Reading_Baseline_training_click	None	geschäftiges																								OA02	no	2024-08-26_07h59.46.596	EXNAT_3_training	2024.1.0	2024-08-26 08h00.06.688381 +0200	
						0	0	0	0																													#2AB7EF	None	None	None	1500	reading_bl_training_text	18	0	Reading_Baseline_training_click	None	Treiben.																								OA02	no	2024-08-26_07h59.46.596	EXNAT_3_training	2024.1.0	2024-08-26 08h00.06.688381 +0200	
						0	0	0	0																													#F989A2	None	None	None	1500	reading_bl_training_text	19	0	Reading_Baseline_training_click	None	Einige																								OA02	no	2024-08-26_07h59.46.596	EXNAT_3_training	2024.1.0	2024-08-26 08h00.06.688381 +0200	
						0	0	0	0																													#2AB7EF	None	None	None	1500	reading_bl_training_text	20	0	Reading_Baseline_training_click	None	Reporter																								OA02	no	2024-08-26_07h59.46.596	EXNAT_3_training	2024.1.0	2024-08-26 08h00.06.688381 +0200	
						0	0	0	0																													#88BA3F	None	None	None	1500	reading_bl_training_text	21	0	Reading_Baseline_training_click	None	interviewten																								OA02	no	2024-08-26_07h59.46.596	EXNAT_3_training	2024.1.0	2024-08-26 08h00.06.688381 +0200	
						0	0	0	0																													#2AB7EF	None	None	None	1500	reading_bl_training_text	22	0	Reading_Baseline_training_click	None	den																								OA02	no	2024-08-26_07h59.46.596	EXNAT_3_training	2024.1.0	2024-08-26 08h00.06.688381 +0200	
						0	0	0	0																													#D292F3	None	None	None	1500	reading_bl_training_text	23	0	Reading_Baseline_training_click	None	berühmten																								OA02	no	2024-08-26_07h59.46.596	EXNAT_3_training	2024.1.0	2024-08-26 08h00.06.688381 +0200	
						0	0	0	0																													#D292F3	None	None	None	1500	reading_bl_training_text	24	0	Reading_Baseline_training_click	None	Weltschachmeister																								OA02	no	2024-08-26_07h59.46.596	EXNAT_3_training	2024.1.0	2024-08-26 08h00.06.688381 +0200	
						0	0	0	0																													#F989A2	None	None	None	1500	reading_bl_training_text	25	0	Reading_Baseline_training_click	None	Mirko																								OA02	no	2024-08-26_07h59.46.596	EXNAT_3_training	2024.1.0	2024-08-26 08h00.06.688381 +0200	
						0	0	0	0																													#88BA3F	None	None	None	1500	reading_bl_training_text	26	0	Reading_Baseline_training_click	None	"Czentovic,"																								OA02	no	2024-08-26_07h59.46.596	EXNAT_3_training	2024.1.0	2024-08-26 08h00.06.688381 +0200	
						0	0	0	0																													#F989A2	None	None	None	1500	reading_bl_training_text	27	0	Reading_Baseline_training_click	None	der																								OA02	no	2024-08-26_07h59.46.596	EXNAT_3_training	2024.1.0	2024-08-26 08h00.06.688381 +0200	
						0	0	0	0																													#2AB7EF	None	None	None	1500	reading_bl_training_text	28	0	Reading_Baseline_training_click	None	nach																								OA02	no	2024-08-26_07h59.46.596	EXNAT_3_training	2024.1.0	2024-08-26 08h00.06.688381 +0200	
						0	0	0	0																													#88BA3F	None	None	None	1500	reading_bl_training_text	29	0	Reading_Baseline_training_click	None	Argentinien																								OA02	no	2024-08-26_07h59.46.596	EXNAT_3_training	2024.1.0	2024-08-26 08h00.06.688381 +0200	
						0	0	0	0																													#D292F3	None	None	None	1500	reading_bl_training_text	30	0	Reading_Baseline_training_click	None	reiste.																								OA02	no	2024-08-26_07h59.46.596	EXNAT_3_training	2024.1.0	2024-08-26 08h00.06.688381 +0200	
						0	0	0	0																																		reading_bl_training_text			Reading_Baseline_training_click			197.19119501113892	Q1	1	a	True	1	None																	OA02	no	2024-08-26_07h59.46.596	EXNAT_3_training	2024.1.0	2024-08-26 08h00.06.688381 +0200	
						0	0	0	0																																		reading_bl_training_text			Reading_Baseline_training_click			205.95233917236328	Q2	3	c	True	1	None																	OA02	no	2024-08-26_07h59.46.596	EXNAT_3_training	2024.1.0	2024-08-26 08h00.06.688381 +0200	
						0	0	0	0																																		reading_bl_training_text			Reading_Baseline_training_click			210.12523818016052	Q3	1	a	True	1	None																	OA02	no	2024-08-26_07h59.46.596	EXNAT_3_training	2024.1.0	2024-08-26 08h00.06.688381 +0200	
						0	0	0	0																																															213.5388581752777	213.53887915611267	213.577388048172	213.57740116119385	213.5869791507721	213.5869870185852	213.6041340827942										OA02	no	2024-08-26_07h59.46.596	EXNAT_3_training	2024.1.0	2024-08-26 08h00.06.688381 +0200	
						1	0	1	0	213.62036395072937																									213.60535502433777	213.6204650402069	213.6204800605774	#D292F3	None	None	None	1500	text_02	1	1	Reading_Baseline_main_click	None	In																								OA02	no	2024-08-26_07h59.46.596	EXNAT_3_training	2024.1.0	2024-08-26 08h00.06.688381 +0200	
						1	0	1	0																													#D292F3	None	None	None	1500	text_02	2	1	Reading_Baseline_main_click	None	Tansania																								OA02	no	2024-08-26_07h59.46.596	EXNAT_3_training	2024.1.0	2024-08-26 08h00.06.688381 +0200	
						1	0	1	0																													#F989A2	None	None	None	1500	text_02	3	1	Reading_Baseline_main_click	None	haben																								OA02	no	2024-08-26_07h59.46.596	EXNAT_3_training	2024.1.0	2024-08-26 08h00.06.688381 +0200	
						1	0	1	0																													#88BA3F	None	None	None	1500	text_02	4	1	Reading_Baseline_main_click	None	Forscher																								OA02	no	2024-08-26_07h59.46.596	EXNAT_3_training	2024.1.0	2024-08-26 08h00.06.688381 +0200	
						1	0	1	0																													#88BA3F	None	None	None	1500	text_02	5	1	Reading_Baseline_main_click	None	Überreste																								OA02	no	2024-08-26_07h59.46.596	EXNAT_3_training	2024.1.0	2024-08-26 08h00.06.688381 +0200	
						1	0	1	0																													#F989A2	None	None	None	1500	text_02	6	1	Reading_Baseline_main_click	None	eines																								OA02	no	2024-08-26_07h59.46.596	EXNAT_3_training	2024.1.0	2024-08-26 08h00.06.688381 +0200	
						1	0	1	0																													#D292F3	None	None	None	1500	text_02	7	1	Reading_Baseline_main_click	None	Urzeit-Krokodils																								OA02	no	2024-08-26_07h59.46.596	EXNAT_3_training	2024.1.0	2024-08-26 08h00.06.688381 +0200	
						1	0	1	0																													#2AB7EF	None	None	None	1500	text_02	8	1	Reading_Baseline_main_click	None	entdeckt.																								OA02	no	2024-08-26_07h59.46.596	EXNAT_3_training	2024.1.0	2024-08-26 08h00.06.688381 +0200	
						1	0	1	0																													#F989A2	None	None	None	1500	text_02	9	1	Reading_Baseline_main_click	None	Es																								OA02	no	2024-08-26_07h59.46.596	EXNAT_3_training	2024.1.0	2024-08-26 08h00.06.688381 +0200	
						1	0	1	0																													#88BA3F	None	None	None	1500	text_02	10	1	Reading_Baseline_main_click	None	zeigt																								OA02	no	2024-08-26_07h59.46.596	EXNAT_3_training	2024.1.0	2024-08-26 08h00.06.688381 +0200	
						1	0	1	0																													#2AB7EF	None	None	None	1500	text_02	11	1	Reading_Baseline_main_click	None	Ähnlichkeiten																								OA02	no	2024-08-26_07h59.46.596	EXNAT_3_training	2024.1.0	2024-08-26 08h00.06.688381 +0200	
						1	0	1	0																													#F989A2	None	None	None	1500	text_02	12	1	Reading_Baseline_main_click	None	zu																								OA02	no	2024-08-26_07h59.46.596	EXNAT_3_training	2024.1.0	2024-08-26 08h00.06.688381 +0200	
						1	0	1	0																													#88BA3F	None	None	None	1500	text_02	13	1	Reading_Baseline_main_click	None	Säugetieren.																								OA02	no	2024-08-26_07h59.46.596	EXNAT_3_training	2024.1.0	2024-08-26 08h00.06.688381 +0200	
						1	0	1	0																													#2AB7EF	None	None	None	1500	text_02	14	1	Reading_Baseline_main_click	None	Es																								OA02	no	2024-08-26_07h59.46.596	EXNAT_3_training	2024.1.0	2024-08-26 08h00.06.688381 +0200	
						1	0	1	0																													#F989A2	None	None	None	1500	text_02	15	1	Reading_Baseline_main_click	None	war																								OA02	no	2024-08-26_07h59.46.596	EXNAT_3_training	2024.1.0	2024-08-26 08h00.06.688381 +0200	
						1	0	1	0																													#2AB7EF	None	None	None	1500	text_02	16	1	Reading_Baseline_main_click	None	so																								OA02	no	2024-08-26_07h59.46.596	EXNAT_3_training	2024.1.0	2024-08-26 08h00.06.688381 +0200	
						1	0	1	0																													#F989A2	None	None	None	1500	text_02	17	1	Reading_Baseline_main_click	None	groß																								OA02	no	2024-08-26_07h59.46.596	EXNAT_3_training	2024.1.0	2024-08-26 08h00.06.688381 +0200	
						1	0	1	0																													#88BA3F	None	None	None	1500	text_02	18	1	Reading_Baseline_main_click	None	wie																								OA02	no	2024-08-26_07h59.46.596	EXNAT_3_training	2024.1.0	2024-08-26 08h00.06.688381 +0200	
						1	0	1	0																													#D292F3	None	None	None	1500	text_02	19	1	Reading_Baseline_main_click	None	eine																								OA02	no	2024-08-26_07h59.46.596	EXNAT_3_training	2024.1.0	2024-08-26 08h00.06.688381 +0200	
						1	0	1	0																													#88BA3F	None	None	None	1500	text_02	20	1	Reading_Baseline_main_click	None	Katze.																								OA02	no	2024-08-26_07h59.46.596	EXNAT_3_training	2024.1.0	2024-08-26 08h00.06.688381 +0200	
						1	0	1	0																													#2AB7EF	None	None	None	1500	text_02	21	1	Reading_Baseline_main_click	None	Das																								OA02	no	2024-08-26_07h59.46.596	EXNAT_3_training	2024.1.0	2024-08-26 08h00.06.688381 +0200	
						1	0	1	0																													#D292F3	None	None	None	1500	text_02	22	1	Reading_Baseline_main_click	None	Tier																								OA02	no	2024-08-26_07h59.46.596	EXNAT_3_training	2024.1.0	2024-08-26 08h00.06.688381 +0200	
						1	0	1	0																													#D292F3	None	None	None	1500	text_02	23	1	Reading_Baseline_main_click	None	lebte																								OA02	no	2024-08-26_07h59.46.596	EXNAT_3_training	2024.1.0	2024-08-26 08h00.06.688381 +0200	
						1	0	1	0																													#F989A2	None	None	None	1500	text_02	24	1	Reading_Baseline_main_click	None	vor																								OA02	no	2024-08-26_07h59.46.596	EXNAT_3_training	2024.1.0	2024-08-26 08h00.06.688381 +0200	
						1	0	1	0																													#D292F3	None	None	None	1500	text_02	25	1	Reading_Baseline_main_click	None	etwa																								OA02	no	2024-08-26_07h59.46.596	EXNAT_3_training	2024.1.0	2024-08-26 08h00.06.688381 +0200	
						1	0	1	0																													#2AB7EF	None	None	None	1500	text_02	26	1	Reading_Baseline_main_click	None	105																								OA02	no	2024-08-26_07h59.46.596	EXNAT_3_training	2024.1.0	2024-08-26 08h00.06.688381 +0200	
						1	0	1	0																													#2AB7EF	None	None	None	1500	text_02	27	1	Reading_Baseline_main_click	None	Millionen																								OA02	no	2024-08-26_07h59.46.596	EXNAT_3_training	2024.1.0	2024-08-26 08h00.06.688381 +0200	
						1	0	1	0																													#D292F3	None	None	None	1500	text_02	28	1	Reading_Baseline_main_click	None	Jahren																								OA02	no	2024-08-26_07h59.46.596	EXNAT_3_training	2024.1.0	2024-08-26 08h00.06.688381 +0200	
						1	0	1	0																													#2AB7EF	None	None	None	1500	text_02	29	1	Reading_Baseline_main_click	None	und																								OA02	no	2024-08-26_07h59.46.596	EXNAT_3_training	2024.1.0	2024-08-26 08h00.06.688381 +0200	
						1	0	1	0																													#F989A2	None	None	None	1500	text_02	30	1	Reading_Baseline_main_click	None	jagte																								OA02	no	2024-08-26_07h59.46.596	EXNAT_3_training	2024.1.0	2024-08-26 08h00.06.688381 +0200	
						1	0	1	0																													#88BA3F	None	None	None	1500	text_02	31	1	Reading_Baseline_main_click	None	an																								OA02	no	2024-08-26_07h59.46.596	EXNAT_3_training	2024.1.0	2024-08-26 08h00.06.688381 +0200	
						1	0	1	0																													#88BA3F	None	None	None	1500	text_02	32	1	Reading_Baseline_main_click	None	Land																								OA02	no	2024-08-26_07h59.46.596	EXNAT_3_training	2024.1.0	2024-08-26 08h00.06.688381 +0200	
						1	0	1	0																													#F989A2	None	None	None	1500	text_02	33	1	Reading_Baseline_main_click	None	nach																								OA02	no	2024-08-26_07h59.46.596	EXNAT_3_training	2024.1.0	2024-08-26 08h00.06.688381 +0200	
						1	0	1	0																													#2AB7EF	None	None	None	1500	text_02	34	1	Reading_Baseline_main_click	None	Insekten																								OA02	no	2024-08-26_07h59.46.596	EXNAT_3_training	2024.1.0	2024-08-26 08h00.06.688381 +0200	
						1	0	1	0																													#D292F3	None	None	None	1500	text_02	35	1	Reading_Baseline_main_click	None	und																								OA02	no	2024-08-26_07h59.46.596	EXNAT_3_training	2024.1.0	2024-08-26 08h00.06.688381 +0200	
						1	0	1	0																													#88BA3F	None	None	None	1500	text_02	36	1	Reading_Baseline_main_click	None	kleinen																								OA02	no	2024-08-26_07h59.46.596	EXNAT_3_training	2024.1.0	2024-08-26 08h00.06.688381 +0200	
						1	0	1	0																													#F989A2	None	None	None	1500	text_02	37	1	Reading_Baseline_main_click	None	Tieren.																								OA02	no	2024-08-26_07h59.46.596	EXNAT_3_training	2024.1.0	2024-08-26 08h00.06.688381 +0200	
						1	0	1	0																													#88BA3F	None	None	None	1500	text_02	38	1	Reading_Baseline_main_click	None	Es																								OA02	no	2024-08-26_07h59.46.596	EXNAT_3_training	2024.1.0	2024-08-26 08h00.06.688381 +0200	
						1	0	1	0																													#2AB7EF	None	None	None	1500	text_02	39	1	Reading_Baseline_main_click	None	besaß																								OA02	no	2024-08-26_07h59.46.596	EXNAT_3_training	2024.1.0	2024-08-26 08h00.06.688381 +0200	
						1	0	1	0																													#2AB7EF	None	None	None	1500	text_02	40	1	Reading_Baseline_main_click	None	ungewöhnliche																								OA02	no	2024-08-26_07h59.46.596	EXNAT_3_training	2024.1.0	2024-08-26 08h00.06.688381 +0200	
						1	0	1	0																													#F989A2	None	None	None	1500	text_02	41	1	Reading_Baseline_main_click	None	"Merkmale,"																								OA02	no	2024-08-26_07h59.46.596	EXNAT_3_training	2024.1.0	2024-08-26 08h00.06.688381 +0200	
						1	0	1	0																													#88BA3F	None	None	None	1500	text_02	42	1	Reading_Baseline_main_click	None	wie																								OA02	no	2024-08-26_07h59.46.596	EXNAT_3_training	2024.1.0	2024-08-26 08h00.06.688381 +0200	
						1	0	1	0																													#88BA3F	None	None	None	1500	text_02	43	1	Reading_Baseline_main_click	None	weniger																								OA02	no	2024-08-26_07h59.46.596	EXNAT_3_training	2024.1.0	2024-08-26 08h00.06.688381 +0200	
						1	0	1	0																													#2AB7EF	None	None	None	1500	text_02	44	1	Reading_Baseline_main_click	None	Zähne																								OA02	no	2024-08-26_07h59.46.596	EXNAT_3_training	2024.1.0	2024-08-26 08h00.06.688381 +0200	
						1	0	1	0																													#D292F3	None	None	None	1500	text_02	45	1	Reading_Baseline_main_click	None	und																								OA02	no	2024-08-26_07h59.46.596	EXNAT_3_training	2024.1.0	2024-08-26 08h00.06.688381 +0200	
						1	0	1	0																													#D292F3	None	None	None	1500	text_02	46	1	Reading_Baseline_main_click	None	hatte																								OA02	no	2024-08-26_07h59.46.596	EXNAT_3_training	2024.1.0	2024-08-26 08h00.06.688381 +0200	
						1	0	1	0																													#D292F3	None	None	None	1500	text_02	47	1	Reading_Baseline_main_click	None	Backenzähne																								OA02	no	2024-08-26_07h59.46.596	EXNAT_3_training	2024.1.0	2024-08-26 08h00.06.688381 +0200	
						1	0	1	0																													#F989A2	None	None	None	1500	text_02	48	1	Reading_Baseline_main_click	None	zum																								OA02	no	2024-08-26_07h59.46.596	EXNAT_3_training	2024.1.0	2024-08-26 08h00.06.688381 +0200	
						1	0	1	0																													#88BA3F	None	None	None	1500	text_02	49	1	Reading_Baseline_main_click	None	Kauen																								OA02	no	2024-08-26_07h59.46.596	EXNAT_3_training	2024.1.0	2024-08-26 08h00.06.688381 +0200	
						1	0	1	0																													#88BA3F	None	None	None	1500	text_02	50	1	Reading_Baseline_main_click	None	von																								OA02	no	2024-08-26_07h59.46.596	EXNAT_3_training	2024.1.0	2024-08-26 08h00.06.688381 +0200	
						1	0	1	0																													#F989A2	None	None	None	1500	text_02	51	1	Reading_Baseline_main_click	None	Nahrung.																								OA02	no	2024-08-26_07h59.46.596	EXNAT_3_training	2024.1.0	2024-08-26 08h00.06.688381 +0200	
						1	0	1	0																													#F989A2	None	None	None	1500	text_02	52	1	Reading_Baseline_main_click	None	Außerdem																								OA02	no	2024-08-26_07h59.46.596	EXNAT_3_training	2024.1.0	2024-08-26 08h00.06.688381 +0200	
						1	0	1	0																													#88BA3F	None	None	None	1500	text_02	53	1	Reading_Baseline_main_click	None	war																								OA02	no	2024-08-26_07h59.46.596	EXNAT_3_training	2024.1.0	2024-08-26 08h00.06.688381 +0200	
						1	0	1	0																													#D292F3	None	None	None	1500	text_02	54	1	Reading_Baseline_main_click	None	es																								OA02	no	2024-08-26_07h59.46.596	EXNAT_3_training	2024.1.0	2024-08-26 08h00.06.688381 +0200	
						1	0	1	0																													#2AB7EF	None	None	None	1500	text_02	55	1	Reading_Baseline_main_click	None	weniger																								OA02	no	2024-08-26_07h59.46.596	EXNAT_3_training	2024.1.0	2024-08-26 08h00.06.688381 +0200	
						1	0	1	0																													#D292F3	None	None	None	1500	text_02	56	1	Reading_Baseline_main_click	None	gepanzert.																								OA02	no	2024-08-26_07h59.46.596	EXNAT_3_training	2024.1.0	2024-08-26 08h00.06.688381 +0200	
						1	0	1	0																													#F989A2	None	None	None	1500	text_02	57	1	Reading_Baseline_main_click	None	Die																								OA02	no	2024-08-26_07h59.46.596	EXNAT_3_training	2024.1.0	2024-08-26 08h00.06.688381 +0200	
						1	0	1	0																													#2AB7EF	None	None	None	1500	text_02	58	1	Reading_Baseline_main_click	None	Forscher																								OA02	no	2024-08-26_07h59.46.596	EXNAT_3_training	2024.1.0	2024-08-26 08h00.06.688381 +0200	
						1	0	1	0																													#F989A2	None	None	None	1500	text_02	59	1	Reading_Baseline_main_click	None	"denken,"																								OA02	no	2024-08-26_07h59.46.596	EXNAT_3_training	2024.1.0	2024-08-26 08h00.06.688381 +0200	
						1	0	1	0																													#D292F3	None	None	None	1500	text_02	60	1	Reading_Baseline_main_click	None	dass																								OA02	no	2024-08-26_07h59.46.596	EXNAT_3_training	2024.1.0	2024-08-26 08h00.06.688381 +0200	
						1	0	1	0																													#D292F3	None	None	None	1500	text_02	61	1	Reading_Baseline_main_click	None	Krokodile																								OA02	no	2024-08-26_07h59.46.596	EXNAT_3_training	2024.1.0	2024-08-26 08h00.06.688381 +0200	
						1	0	1	0																													#2AB7EF	None	None	None	1500	text_02	62	1	Reading_Baseline_main_click	None	in																								OA02	no	2024-08-26_07h59.46.596	EXNAT_3_training	2024.1.0	2024-08-26 08h00.06.688381 +0200	
						1	0	1	0																													#88BA3F	None	None	None	1500	text_02	63	1	Reading_Baseline_main_click	None	der																								OA02	no	2024-08-26_07h59.46.596	EXNAT_3_training	2024.1.0	2024-08-26 08h00.06.688381 +0200	
						1	0	1	0																													#D292F3	None	None	None	1500	text_02	64	1	Reading_Baseline_main_click	None	Vergangenheit																								OA02	no	2024-08-26_07h59.46.596	EXNAT_3_training	2024.1.0	2024-08-26 08h00.06.688381 +0200	
						1	0	1	0																													#F989A2	None	None	None	1500	text_02	65	1	Reading_Baseline_main_click	None	auf																								OA02	no	2024-08-26_07h59.46.596	EXNAT_3_training	2024.1.0	2024-08-26 08h00.06.688381 +0200	
						1	0	1	0																													#F989A2	None	None	None	1500	text_02	66	1	Reading_Baseline_main_click	None	der																								OA02	no	2024-08-26_07h59.46.596	EXNAT_3_training	2024.1.0	2024-08-26 08h00.06.688381 +0200	
						1	0	1	0																													#2AB7EF	None	None	None	1500	text_02	67	1	Reading_Baseline_main_click	None	Südhalbkugel																								OA02	no	2024-08-26_07h59.46.596	EXNAT_3_training	2024.1.0	2024-08-26 08h00.06.688381 +0200	
						1	0	1	0																													#88BA3F	None	None	None	1500	text_02	68	1	Reading_Baseline_main_click	None	"lebten,"																								OA02	no	2024-08-26_07h59.46.596	EXNAT_3_training	2024.1.0	2024-08-26 08h00.06.688381 +0200	
						1	0	1	0																													#88BA3F	None	None	None	1500	text_02	69	1	Reading_Baseline_main_click	None	während																								OA02	no	2024-08-26_07h59.46.596	EXNAT_3_training	2024.1.0	2024-08-26 08h00.06.688381 +0200	
						1	0	1	0																													#D292F3	None	None	None	1500	text_02	70	1	Reading_Baseline_main_click	None	sich																								OA02	no	2024-08-26_07h59.46.596	EXNAT_3_training	2024.1.0	2024-08-26 08h00.06.688381 +0200	
						1	0	1	0																													#2AB7EF	None	None	None	1500	text_02	71	1	Reading_Baseline_main_click	None	Säugetiere																								OA02	no	2024-08-26_07h59.46.596	EXNAT_3_training	2024.1.0	2024-08-26 08h00.06.688381 +0200	
						1	0	1	0																													#F989A2	None	None	None	1500	text_02	72	1	Reading_Baseline_main_click	None	auf																								OA02	no	2024-08-26_07h59.46.596	EXNAT_3_training	2024.1.0	2024-08-26 08h00.06.688381 +0200	
						1	0	1	0																													#D292F3	None	None	None	1500	text_02	73	1	Reading_Baseline_main_click	None	der																								OA02	no	2024-08-26_07h59.46.596	EXNAT_3_training	2024.1.0	2024-08-26 08h00.06.688381 +0200	
						1	0	1	0																													#2AB7EF	None	None	None	1500	text_02	74	1	Reading_Baseline_main_click	None	Nordhalbkugel																								OA02	no	2024-08-26_07h59.46.596	EXNAT_3_training	2024.1.0	2024-08-26 08h00.06.688381 +0200	
						1	0	1	0																													#D292F3	None	None	None	1500	text_02	75	1	Reading_Baseline_main_click	None	ausbreiteten.																								OA02	no	2024-08-26_07h59.46.596	EXNAT_3_training	2024.1.0	2024-08-26 08h00.06.688381 +0200	
						1	0	1	0																													#2AB7EF	None	None	None	1500	text_02	76	1	Reading_Baseline_main_click	None	Die																								OA02	no	2024-08-26_07h59.46.596	EXNAT_3_training	2024.1.0	2024-08-26 08h00.06.688381 +0200	
						1	0	1	0																													#F989A2	None	None	None	1500	text_02	77	1	Reading_Baseline_main_click	None	Forscher																								OA02	no	2024-08-26_07h59.46.596	EXNAT_3_training	2024.1.0	2024-08-26 08h00.06.688381 +0200	
						1	0	1	0																													#D292F3	None	None	None	1500	text_02	78	1	Reading_Baseline_main_click	None	werden																								OA02	no	2024-08-26_07h59.46.596	EXNAT_3_training	2024.1.0	2024-08-26 08h00.06.688381 +0200	
						1	0	1	0																													#F989A2	None	None	None	1500	text_02	79	1	Reading_Baseline_main_click	None	in																								OA02	no	2024-08-26_07h59.46.596	EXNAT_3_training	2024.1.0	2024-08-26 08h00.06.688381 +0200	
						1	0	1	0																													#2AB7EF	None	None	None	1500	text_02	80	1	Reading_Baseline_main_click	None	Zukunft																								OA02	no	2024-08-26_07h59.46.596	EXNAT_3_training	2024.1.0	2024-08-26 08h00.06.688381 +0200	
						1	0	1	0																													#88BA3F	None	None	None	1500	text_02	81	1	Reading_Baseline_main_click	None	versuchen																								OA02	no	2024-08-26_07h59.46.596	EXNAT_3_training	2024.1.0	2024-08-26 08h00.06.688381 +0200	
						1	0	1	0																													#88BA3F	None	None	None	1500	text_02	82	1	Reading_Baseline_main_click	None	mehr																								OA02	no	2024-08-26_07h59.46.596	EXNAT_3_training	2024.1.0	2024-08-26 08h00.06.688381 +0200	
						1	0	1	0																													#2AB7EF	None	None	None	1500	text_02	83	1	Reading_Baseline_main_click	None	über																								OA02	no	2024-08-26_07h59.46.596	EXNAT_3_training	2024.1.0	2024-08-26 08h00.06.688381 +0200	
						1	0	1	0																													#88BA3F	None	None	None	1500	text_02	84	1	Reading_Baseline_main_click	None	die																								OA02	no	2024-08-26_07h59.46.596	EXNAT_3_training	2024.1.0	2024-08-26 08h00.06.688381 +0200	
						1	0	1	0																													#D292F3	None	None	None	1500	text_02	85	1	Reading_Baseline_main_click	None	frühe																								OA02	no	2024-08-26_07h59.46.596	EXNAT_3_training	2024.1.0	2024-08-26 08h00.06.688381 +0200	
						1	0	1	0																													#2AB7EF	None	None	None	1500	text_02	86	1	Reading_Baseline_main_click	None	Tierwelt																								OA02	no	2024-08-26_07h59.46.596	EXNAT_3_training	2024.1.0	2024-08-26 08h00.06.688381 +0200	
						1	0	1	0																													#88BA3F	None	None	None	1500	text_02	87	1	Reading_Baseline_main_click	None	auf																								OA02	no	2024-08-26_07h59.46.596	EXNAT_3_training	2024.1.0	2024-08-26 08h00.06.688381 +0200	
						1	0	1	0																													#D292F3	None	None	None	1500	text_02	88	1	Reading_Baseline_main_click	None	der																								OA02	no	2024-08-26_07h59.46.596	EXNAT_3_training	2024.1.0	2024-08-26 08h00.06.688381 +0200	
						1	0	1	0																													#F989A2	None	None	None	1500	text_02	89	1	Reading_Baseline_main_click	None	Südhalbkugel																								OA02	no	2024-08-26_07h59.46.596	EXNAT_3_training	2024.1.0	2024-08-26 08h00.06.688381 +0200	
						1	0	1	0																													#88BA3F	None	None	None	1500	text_02	90	1	Reading_Baseline_main_click	None	zu																								OA02	no	2024-08-26_07h59.46.596	EXNAT_3_training	2024.1.0	2024-08-26 08h00.06.688381 +0200	
						1	0	1	0																													#F989A2	None	None	None	1500	text_02	91	1	Reading_Baseline_main_click	None	erfahren.																								OA02	no	2024-08-26_07h59.46.596	EXNAT_3_training	2024.1.0	2024-08-26 08h00.06.688381 +0200	
						1	0	1	0																																		text_02			Reading_Baseline_main_click			401.86354899406433	Q1	3	c	True	2	None																	OA02	no	2024-08-26_07h59.46.596	EXNAT_3_training	2024.1.0	2024-08-26 08h00.06.688381 +0200	
						1	0	1	0																																		text_02			Reading_Baseline_main_click			408.98109102249146	Q2	NA	NA	False	2	None																	OA02	no	2024-08-26_07h59.46.596	EXNAT_3_training	2024.1.0	2024-08-26 08h00.06.688381 +0200	
						1	0	1	0																																		text_02			Reading_Baseline_main_click			419.02201414108276	Q3	1	a	False	2	None																	OA02	no	2024-08-26_07h59.46.596	EXNAT_3_training	2024.1.0	2024-08-26 08h00.06.688381 +0200	
						1	0	1	0																																															423.6802020072937	423.68022108078003	423.7196900844574	423.71970415115356	423.7286961078644	423.7287061214447	423.7457711696625										OA02	no	2024-08-26_07h59.46.596	EXNAT_3_training	2024.1.0	2024-08-26 08h00.06.688381 +0200	
						2	0	2	0	423.76202416419983																									423.74609303474426			#2AB7EF	False	correct rejection	None	1500		1	2	0back_single_training	0																#D292F3									OA02	no	2024-08-26_07h59.46.596	EXNAT_3_training	2024.1.0	2024-08-26 08h00.06.688381 +0200	
						2	0	2	0																													#2AB7EF	False	correct rejection	None	1500		2	2	0back_single_training	0																#D292F3									OA02	no	2024-08-26_07h59.46.596	EXNAT_3_training	2024.1.0	2024-08-26 08h00.06.688381 +0200	
						2	0	2	0																													#88BA3F	False	correct rejection	None	1500		3	2	0back_single_training	0																#D292F3									OA02	no	2024-08-26_07h59.46.596	EXNAT_3_training	2024.1.0	2024-08-26 08h00.06.688381 +0200	
						2	0	2	0																													#88BA3F	False	correct rejection	None	1500		4	2	0back_single_training	0																#D292F3									OA02	no	2024-08-26_07h59.46.596	EXNAT_3_training	2024.1.0	2024-08-26 08h00.06.688381 +0200	
						2	0	2	0																													#2AB7EF	False	correct rejection	None	1500		5	2	0back_single_training	0																#D292F3									OA02	no	2024-08-26_07h59.46.596	EXNAT_3_training	2024.1.0	2024-08-26 08h00.06.688381 +0200	
						2	0	2	0																													#2AB7EF	False	correct rejection	None	1500		6	2	0back_single_training	0																#D292F3									OA02	no	2024-08-26_07h59.46.596	EXNAT_3_training	2024.1.0	2024-08-26 08h00.06.688381 +0200	
						2	0	2	0																													#D292F3	True	hit	467.26512908935547	1500		7	2	0back_single_training	0																#D292F3									OA02	no	2024-08-26_07h59.46.596	EXNAT_3_training	2024.1.0	2024-08-26 08h00.06.688381 +0200	
						2	0	2	0																													#F989A2	False	correct rejection	None	1500		8	2	0back_single_training	0																#D292F3									OA02	no	2024-08-26_07h59.46.596	EXNAT_3_training	2024.1.0	2024-08-26 08h00.06.688381 +0200	
						2	0	2	0																													#2AB7EF	False	correct rejection	None	1500		9	2	0back_single_training	0																#D292F3									OA02	no	2024-08-26_07h59.46.596	EXNAT_3_training	2024.1.0	2024-08-26 08h00.06.688381 +0200	
						2	0	2	0																													#D292F3	True	hit	451.74622535705566	1500		10	2	0back_single_training	0																#D292F3									OA02	no	2024-08-26_07h59.46.596	EXNAT_3_training	2024.1.0	2024-08-26 08h00.06.688381 +0200	
						2	0	2	0																													#F989A2	False	correct rejection	None	1500		11	2	0back_single_training	0																#D292F3									OA02	no	2024-08-26_07h59.46.596	EXNAT_3_training	2024.1.0	2024-08-26 08h00.06.688381 +0200	
						2	0	2	0																													#88BA3F	False	correct rejection	None	1500		12	2	0back_single_training	0																#D292F3									OA02	no	2024-08-26_07h59.46.596	EXNAT_3_training	2024.1.0	2024-08-26 08h00.06.688381 +0200	
						2	0	2	0																													#F989A2	False	correct rejection	None	1500		13	2	0back_single_training	0																#D292F3									OA02	no	2024-08-26_07h59.46.596	EXNAT_3_training	2024.1.0	2024-08-26 08h00.06.688381 +0200	
						2	0	2	0																													#D292F3	True	hit	565.8130645751953	1500		14	2	0back_single_training	0																#D292F3									OA02	no	2024-08-26_07h59.46.596	EXNAT_3_training	2024.1.0	2024-08-26 08h00.06.688381 +0200	
						2	0	2	0																													#F989A2	False	correct rejection	None	1500		15	2	0back_single_training	0																#D292F3									OA02	no	2024-08-26_07h59.46.596	EXNAT_3_training	2024.1.0	2024-08-26 08h00.06.688381 +0200	
						2	0	2	0																													#88BA3F	False	correct rejection	None	1500		16	2	0back_single_training	0																#D292F3									OA02	no	2024-08-26_07h59.46.596	EXNAT_3_training	2024.1.0	2024-08-26 08h00.06.688381 +0200	
						2	0	2	0																													#F989A2	False	false alarm	500.11301040649414	1500		17	2	0back_single_training	0																#D292F3									OA02	no	2024-08-26_07h59.46.596	EXNAT_3_training	2024.1.0	2024-08-26 08h00.06.688381 +0200	
						2	0	2	0																													#88BA3F	False	correct rejection	None	1500		18	2	0back_single_training	0																#D292F3									OA02	no	2024-08-26_07h59.46.596	EXNAT_3_training	2024.1.0	2024-08-26 08h00.06.688381 +0200	
						2	0	2	0																													#D292F3	True	hit	633.7440013885498	1500		19	2	0back_single_training	0																#D292F3									OA02	no	2024-08-26_07h59.46.596	EXNAT_3_training	2024.1.0	2024-08-26 08h00.06.688381 +0200	
						2	0	2	0																													#D292F3	True	hit	550.2729415893555	1500		20	2	0back_single_training	0																#D292F3									OA02	no	2024-08-26_07h59.46.596	EXNAT_3_training	2024.1.0	2024-08-26 08h00.06.688381 +0200	
						2	0	2	0																											484.9155550003052	484.9155640602112	#F989A2	False	correct rejection	None	1500	text_03	1	3	0back_dual_main_click	0	Orang-Utans															#88BA3F									OA02	no	2024-08-26_07h59.46.596	EXNAT_3_training	2024.1.0	2024-08-26 08h00.06.688381 +0200	
						2	0	2	0																													#D292F3	False	correct rejection	None	1500	text_03	2	3	0back_dual_main_click	0	bauen															#88BA3F									OA02	no	2024-08-26_07h59.46.596	EXNAT_3_training	2024.1.0	2024-08-26 08h00.06.688381 +0200	
						2	0	2	0																													#88BA3F	True	hit	546.9980239868164	1500	text_03	3	3	0back_dual_main_click	0	sich															#88BA3F									OA02	no	2024-08-26_07h59.46.596	EXNAT_3_training	2024.1.0	2024-08-26 08h00.06.688381 +0200	
						2	0	2	0																													#D292F3	False	correct rejection	None	1500	text_03	4	3	0back_dual_main_click	0	jede															#88BA3F									OA02	no	2024-08-26_07h59.46.596	EXNAT_3_training	2024.1.0	2024-08-26 08h00.06.688381 +0200	
						2	0	2	0																													#D292F3	False	correct rejection	None	1500	text_03	5	3	0back_dual_main_click	0	Nacht															#88BA3F									OA02	no	2024-08-26_07h59.46.596	EXNAT_3_training	2024.1.0	2024-08-26 08h00.06.688381 +0200	
						2	0	2	0																													#D292F3	False	correct rejection	None	1500	text_03	6	3	0back_dual_main_click	0	gemütliche															#88BA3F									OA02	no	2024-08-26_07h59.46.596	EXNAT_3_training	2024.1.0	2024-08-26 08h00.06.688381 +0200	
						2	0	2	0																													#D292F3	False	correct rejection	None	1500	text_03	7	3	0back_dual_main_click	0	Schlafnester															#88BA3F									OA02	no	2024-08-26_07h59.46.596	EXNAT_3_training	2024.1.0	2024-08-26 08h00.06.688381 +0200	
						2	0	2	0																													#D292F3	False	correct rejection	None	1500	text_03	8	3	0back_dual_main_click	0	hoch															#88BA3F									OA02	no	2024-08-26_07h59.46.596	EXNAT_3_training	2024.1.0	2024-08-26 08h00.06.688381 +0200	
						2	0	2	0																													#F989A2	False	correct rejection	None	1500	text_03	9	3	0back_dual_main_click	0	in															#88BA3F									OA02	no	2024-08-26_07h59.46.596	EXNAT_3_training	2024.1.0	2024-08-26 08h00.06.688381 +0200	
						2	0	2	0																													#D292F3	False	correct rejection	None	1500	text_03	10	3	0back_dual_main_click	0	den															#88BA3F									OA02	no	2024-08-26_07h59.46.596	EXNAT_3_training	2024.1.0	2024-08-26 08h00.06.688381 +0200	
						2	0	2	0																													#F989A2	False	correct rejection	None	1500	text_03	11	3	0back_dual_main_click	0	Bäumen.															#88BA3F									OA02	no	2024-08-26_07h59.46.596	EXNAT_3_training	2024.1.0	2024-08-26 08h00.06.688381 +0200	
						2	0	2	0																													#F989A2	False	correct rejection	None	1500	text_03	12	3	0back_dual_main_click	0	Diese															#88BA3F									OA02	no	2024-08-26_07h59.46.596	EXNAT_3_training	2024.1.0	2024-08-26 08h00.06.688381 +0200	
						2	0	2	0																													#88BA3F	True	hit	464.9059772491455	1500	text_03	13	3	0back_dual_main_click	0	Nester															#88BA3F									OA02	no	2024-08-26_07h59.46.596	EXNAT_3_training	2024.1.0	2024-08-26 08h00.06.688381 +0200	
						2	0	2	0																													#D292F3	False	correct rejection	None	1500	text_03	14	3	0back_dual_main_click	0	bestehen															#88BA3F									OA02	no	2024-08-26_07h59.46.596	EXNAT_3_training	2024.1.0	2024-08-26 08h00.06.688381 +0200	
						2	0	2	0																													#2AB7EF	False	correct rejection	None	1500	text_03	15	3	0back_dual_main_click	0	aus															#88BA3F									OA02	no	2024-08-26_07h59.46.596	EXNAT_3_training	2024.1.0	2024-08-26 08h00.06.688381 +0200	
						2	0	2	0																													#D292F3	False	correct rejection	None	1500	text_03	16	3	0back_dual_main_click	0	Ästen															#88BA3F									OA02	no	2024-08-26_07h59.46.596	EXNAT_3_training	2024.1.0	2024-08-26 08h00.06.688381 +0200	
						2	0	2	0																													#F989A2	False	correct rejection	None	1500	text_03	17	3	0back_dual_main_click	0	und															#88BA3F									OA02	no	2024-08-26_07h59.46.596	EXNAT_3_training	2024.1.0	2024-08-26 08h00.06.688381 +0200	
						2	0	2	0																													#D292F3	False	correct rejection	None	1500	text_03	18	3	0back_dual_main_click	0	Blättern															#88BA3F									OA02	no	2024-08-26_07h59.46.596	EXNAT_3_training	2024.1.0	2024-08-26 08h00.06.688381 +0200	
						2	0	2	0																													#2AB7EF	False	correct rejection	None	1500	text_03	19	3	0back_dual_main_click	0	und															#88BA3F									OA02	no	2024-08-26_07h59.46.596	EXNAT_3_training	2024.1.0	2024-08-26 08h00.06.688381 +0200	
						2	0	2	0																													#D292F3	False	correct rejection	None	1500	text_03	20	3	0back_dual_main_click	0	bieten															#88BA3F									OA02	no	2024-08-26_07h59.46.596	EXNAT_3_training	2024.1.0	2024-08-26 08h00.06.688381 +0200	
						2	0	2	0																													#F989A2	False	correct rejection	None	1500	text_03	21	3	0back_dual_main_click	0	den															#88BA3F									OA02	no	2024-08-26_07h59.46.596	EXNAT_3_training	2024.1.0	2024-08-26 08h00.06.688381 +0200	
						2	0	2	0																													#D292F3	False	correct rejection	None	1500	text_03	22	3	0back_dual_main_click	0	Affen															#88BA3F									OA02	no	2024-08-26_07h59.46.596	EXNAT_3_training	2024.1.0	2024-08-26 08h00.06.688381 +0200	
						2	0	2	0																													#F989A2	False	correct rejection	None	1500	text_03	23	3	0back_dual_main_click	0	Komfort															#88BA3F									OA02	no	2024-08-26_07h59.46.596	EXNAT_3_training	2024.1.0	2024-08-26 08h00.06.688381 +0200	
						2	0	2	0																													#F989A2	False	correct rejection	None	1500	text_03	24	3	0back_dual_main_click	0	und															#88BA3F									OA02	no	2024-08-26_07h59.46.596	EXNAT_3_training	2024.1.0	2024-08-26 08h00.06.688381 +0200	
						2	0	2	0																													#D292F3	False	correct rejection	None	1500	text_03	25	3	0back_dual_main_click	0	Schutz.															#88BA3F									OA02	no	2024-08-26_07h59.46.596	EXNAT_3_training	2024.1.0	2024-08-26 08h00.06.688381 +0200	
						2	0	2	0																													#2AB7EF	False	correct rejection	None	1500	text_03	26	3	0back_dual_main_click	0	Forscher															#88BA3F									OA02	no	2024-08-26_07h59.46.596	EXNAT_3_training	2024.1.0	2024-08-26 08h00.06.688381 +0200	
						2	0	2	0																													#F989A2	False	correct rejection	None	1500	text_03	27	3	0back_dual_main_click	0	haben															#88BA3F									OA02	no	2024-08-26_07h59.46.596	EXNAT_3_training	2024.1.0	2024-08-26 08h00.06.688381 +0200	
						2	0	2	0																													#D292F3	False	correct rejection	None	1500	text_03	28	3	0back_dual_main_click	0	"entdeckt,"															#88BA3F									OA02	no	2024-08-26_07h59.46.596	EXNAT_3_training	2024.1.0	2024-08-26 08h00.06.688381 +0200	
						2	0	2	0																													#D292F3	False	correct rejection	None	1500	text_03	29	3	0back_dual_main_click	0	dass															#88BA3F									OA02	no	2024-08-26_07h59.46.596	EXNAT_3_training	2024.1.0	2024-08-26 08h00.06.688381 +0200	
						2	0	2	0																													#F989A2	False	correct rejection	None	1500	text_03	30	3	0back_dual_main_click	0	Orang-Utans															#88BA3F									OA02	no	2024-08-26_07h59.46.596	EXNAT_3_training	2024.1.0	2024-08-26 08h00.06.688381 +0200	
						2	0	2	0																													#2AB7EF	False	correct rejection	None	1500	text_03	31	3	0back_dual_main_click	0	sehr															#88BA3F									OA02	no	2024-08-26_07h59.46.596	EXNAT_3_training	2024.1.0	2024-08-26 08h00.06.688381 +0200	
						2	0	2	0																													#2AB7EF	False	correct rejection	None	1500	text_03	32	3	0back_dual_main_click	0	geschickt															#88BA3F									OA02	no	2024-08-26_07h59.46.596	EXNAT_3_training	2024.1.0	2024-08-26 08h00.06.688381 +0200	
						2	0	2	0																													#88BA3F	True	hit	598.7269878387451	1500	text_03	33	3	0back_dual_main_click	0	vorgehen:															#88BA3F									OA02	no	2024-08-26_07h59.46.596	EXNAT_3_training	2024.1.0	2024-08-26 08h00.06.688381 +0200	
						2	0	2	0																													#D292F3	False	correct rejection	None	1500	text_03	34	3	0back_dual_main_click	0	Sie															#88BA3F									OA02	no	2024-08-26_07h59.46.596	EXNAT_3_training	2024.1.0	2024-08-26 08h00.06.688381 +0200	
						2	0	2	0																													#D292F3	False	correct rejection	None	1500	text_03	35	3	0back_dual_main_click	0	wählen															#88BA3F									OA02	no	2024-08-26_07h59.46.596	EXNAT_3_training	2024.1.0	2024-08-26 08h00.06.688381 +0200	
						2	0	2	0																													#2AB7EF	False	correct rejection	None	1500	text_03	36	3	0back_dual_main_click	0	stabile															#88BA3F									OA02	no	2024-08-26_07h59.46.596	EXNAT_3_training	2024.1.0	2024-08-26 08h00.06.688381 +0200	
						2	0	2	0																													#D292F3	False	correct rejection	None	1500	text_03	37	3	0back_dual_main_click	0	Äste															#88BA3F									OA02	no	2024-08-26_07h59.46.596	EXNAT_3_training	2024.1.0	2024-08-26 08h00.06.688381 +0200	
						2	0	2	0																													#F989A2	False	correct rejection	None	1500	text_03	38	3	0back_dual_main_click	0	aus															#88BA3F									OA02	no	2024-08-26_07h59.46.596	EXNAT_3_training	2024.1.0	2024-08-26 08h00.06.688381 +0200	
						2	0	2	0																													#F989A2	False	correct rejection	None	1500	text_03	39	3	0back_dual_main_click	0	und															#88BA3F									OA02	no	2024-08-26_07h59.46.596	EXNAT_3_training	2024.1.0	2024-08-26 08h00.06.688381 +0200	
						2	0	2	0																													#F989A2	False	correct rejection	None	1500	text_03	40	3	0back_dual_main_click	0	biegen															#88BA3F									OA02	no	2024-08-26_07h59.46.596	EXNAT_3_training	2024.1.0	2024-08-26 08h00.06.688381 +0200	
						2	0	2	0																													#88BA3F	True	hit	531.5051078796387	1500	text_03	41	3	0back_dual_main_click	0	"diese,"															#88BA3F									OA02	no	2024-08-26_07h59.46.596	EXNAT_3_training	2024.1.0	2024-08-26 08h00.06.688381 +0200	
						2	0	2	0																													#F989A2	False	correct rejection	None	1500	text_03	42	3	0back_dual_main_click	0	ohne															#88BA3F									OA02	no	2024-08-26_07h59.46.596	EXNAT_3_training	2024.1.0	2024-08-26 08h00.06.688381 +0200	
						2	0	2	0																													#2AB7EF	False	correct rejection	None	1500	text_03	43	3	0back_dual_main_click	0	sie															#88BA3F									OA02	no	2024-08-26_07h59.46.596	EXNAT_3_training	2024.1.0	2024-08-26 08h00.06.688381 +0200	
						2	0	2	0																													#F989A2	False	correct rejection	None	1500	text_03	44	3	0back_dual_main_click	0	ganz															#88BA3F									OA02	no	2024-08-26_07h59.46.596	EXNAT_3_training	2024.1.0	2024-08-26 08h00.06.688381 +0200	
						2	0	2	0																													#2AB7EF	False	correct rejection	None	1500	text_03	45	3	0back_dual_main_click	0	zu															#88BA3F									OA02	no	2024-08-26_07h59.46.596	EXNAT_3_training	2024.1.0	2024-08-26 08h00.06.688381 +0200	
						2	0	2	0																													#F989A2	False	correct rejection	None	1500	text_03	46	3	0back_dual_main_click	0	brechen.															#88BA3F									OA02	no	2024-08-26_07h59.46.596	EXNAT_3_training	2024.1.0	2024-08-26 08h00.06.688381 +0200	
						2	0	2	0																													#2AB7EF	False	correct rejection	None	1500	text_03	47	3	0back_dual_main_click	0	So															#88BA3F									OA02	no	2024-08-26_07h59.46.596	EXNAT_3_training	2024.1.0	2024-08-26 08h00.06.688381 +0200	
						2	0	2	0																													#D292F3	False	correct rejection	None	1500	text_03	48	3	0back_dual_main_click	0	entsteht															#88BA3F									OA02	no	2024-08-26_07h59.46.596	EXNAT_3_training	2024.1.0	2024-08-26 08h00.06.688381 +0200	
						2	0	2	0																													#2AB7EF	False	correct rejection	None	1500	text_03	49	3	0back_dual_main_click	0	eine															#88BA3F									OA02	no	2024-08-26_07h59.46.596	EXNAT_3_training	2024.1.0	2024-08-26 08h00.06.688381 +0200	
						2	0	2	0																													#F989A2	False	correct rejection	None	1500	text_03	50	3	0back_dual_main_click	0	robuste															#88BA3F									OA02	no	2024-08-26_07h59.46.596	EXNAT_3_training	2024.1.0	2024-08-26 08h00.06.688381 +0200	
						2	0	2	0																													#88BA3F	True	hit	481.2657833099365	1500	text_03	51	3	0back_dual_main_click	0	Grundstruktur.															#88BA3F									OA02	no	2024-08-26_07h59.46.596	EXNAT_3_training	2024.1.0	2024-08-26 08h00.06.688381 +0200	
						2	0	2	0																													#D292F3	False	correct rejection	None	1500	text_03	52	3	0back_dual_main_click	0	Die															#88BA3F									OA02	no	2024-08-26_07h59.46.596	EXNAT_3_training	2024.1.0	2024-08-26 08h00.06.688381 +0200	
						2	0	2	0																													#F989A2	False	correct rejection	None	1500	text_03	53	3	0back_dual_main_click	0	Polsterung															#88BA3F									OA02	no	2024-08-26_07h59.46.596	EXNAT_3_training	2024.1.0	2024-08-26 08h00.06.688381 +0200	
						2	0	2	0																													#D292F3	False	correct rejection	None	1500	text_03	54	3	0back_dual_main_click	0	der															#88BA3F									OA02	no	2024-08-26_07h59.46.596	EXNAT_3_training	2024.1.0	2024-08-26 08h00.06.688381 +0200	
						2	0	2	0																													#D292F3	False	correct rejection	None	1500	text_03	55	3	0back_dual_main_click	0	Nester															#88BA3F									OA02	no	2024-08-26_07h59.46.596	EXNAT_3_training	2024.1.0	2024-08-26 08h00.06.688381 +0200	
						2	0	2	0																													#88BA3F	True	hit	565.0811195373535	1500	text_03	56	3	0back_dual_main_click	0	besteht															#88BA3F									OA02	no	2024-08-26_07h59.46.596	EXNAT_3_training	2024.1.0	2024-08-26 08h00.06.688381 +0200	
						2	0	2	0																													#2AB7EF	False	correct rejection	None	1500	text_03	57	3	0back_dual_main_click	0	aus															#88BA3F									OA02	no	2024-08-26_07h59.46.596	EXNAT_3_training	2024.1.0	2024-08-26 08h00.06.688381 +0200	
						2	0	2	0																													#2AB7EF	False	correct rejection	None	1500	text_03	58	3	0back_dual_main_click	0	dünneren															#88BA3F									OA02	no	2024-08-26_07h59.46.596	EXNAT_3_training	2024.1.0	2024-08-26 08h00.06.688381 +0200	
						2	0	2	0																													#88BA3F	True	hit	598.8690853118896	1500	text_03	59	3	0back_dual_main_click	0	Ästen															#88BA3F									OA02	no	2024-08-26_07h59.46.596	EXNAT_3_training	2024.1.0	2024-08-26 08h00.06.688381 +0200	
						2	0	2	0																													#2AB7EF	False	correct rejection	None	1500	text_03	60	3	0back_dual_main_click	0	und															#88BA3F									OA02	no	2024-08-26_07h59.46.596	EXNAT_3_training	2024.1.0	2024-08-26 08h00.06.688381 +0200	
						2	0	2	0																													#D292F3	False	correct rejection	None	1500	text_03	61	3	0back_dual_main_click	0	macht															#88BA3F									OA02	no	2024-08-26_07h59.46.596	EXNAT_3_training	2024.1.0	2024-08-26 08h00.06.688381 +0200	
						2	0	2	0																													#88BA3F	True	hit	532.8609943389893	1500	text_03	62	3	0back_dual_main_click	0	das															#88BA3F									OA02	no	2024-08-26_07h59.46.596	EXNAT_3_training	2024.1.0	2024-08-26 08h00.06.688381 +0200	
						2	0	2	0																													#D292F3	False	correct rejection	None	1500	text_03	63	3	0back_dual_main_click	0	Nest															#88BA3F									OA02	no	2024-08-26_07h59.46.596	EXNAT_3_training	2024.1.0	2024-08-26 08h00.06.688381 +0200	
						2	0	2	0																													#2AB7EF	False	correct rejection	None	1500	text_03	64	3	0back_dual_main_click	0	besonders															#88BA3F									OA02	no	2024-08-26_07h59.46.596	EXNAT_3_training	2024.1.0	2024-08-26 08h00.06.688381 +0200	
						2	0	2	0																													#F989A2	False	correct rejection	None	1500	text_03	65	3	0back_dual_main_click	0	bequem.															#88BA3F									OA02	no	2024-08-26_07h59.46.596	EXNAT_3_training	2024.1.0	2024-08-26 08h00.06.688381 +0200	
						2	0	2	0																													#D292F3	False	correct rejection	None	1500	text_03	66	3	0back_dual_main_click	0	Diese															#88BA3F									OA02	no	2024-08-26_07h59.46.596	EXNAT_3_training	2024.1.0	2024-08-26 08h00.06.688381 +0200	
						2	0	2	0																													#2AB7EF	False	correct rejection	None	1500	text_03	67	3	0back_dual_main_click	0	Bauweise															#88BA3F									OA02	no	2024-08-26_07h59.46.596	EXNAT_3_training	2024.1.0	2024-08-26 08h00.06.688381 +0200	
						2	0	2	0																													#F989A2	False	correct rejection	None	1500	text_03	68	3	0back_dual_main_click	0	schützt															#88BA3F									OA02	no	2024-08-26_07h59.46.596	EXNAT_3_training	2024.1.0	2024-08-26 08h00.06.688381 +0200	
						2	0	2	0																													#F989A2	False	correct rejection	None	1500	text_03	69	3	0back_dual_main_click	0	die															#88BA3F									OA02	no	2024-08-26_07h59.46.596	EXNAT_3_training	2024.1.0	2024-08-26 08h00.06.688381 +0200	
						2	0	2	0																													#2AB7EF	False	correct rejection	None	1500	text_03	70	3	0back_dual_main_click	0	Orang-Utans															#88BA3F									OA02	no	2024-08-26_07h59.46.596	EXNAT_3_training	2024.1.0	2024-08-26 08h00.06.688381 +0200	
						2	0	2	0																													#2AB7EF	False	correct rejection	None	1500	text_03	71	3	0back_dual_main_click	0	nicht															#88BA3F									OA02	no	2024-08-26_07h59.46.596	EXNAT_3_training	2024.1.0	2024-08-26 08h00.06.688381 +0200	
						2	0	2	0																													#2AB7EF	False	correct rejection	None	1500	text_03	72	3	0back_dual_main_click	0	nur															#88BA3F									OA02	no	2024-08-26_07h59.46.596	EXNAT_3_training	2024.1.0	2024-08-26 08h00.06.688381 +0200	
						2	0	2	0																													#F989A2	False	correct rejection	None	1500	text_03	73	3	0back_dual_main_click	0	vor															#88BA3F									OA02	no	2024-08-26_07h59.46.596	EXNAT_3_training	2024.1.0	2024-08-26 08h00.06.688381 +0200	
						2	0	2	0																													#F989A2	False	correct rejection	None	1500	text_03	74	3	0back_dual_main_click	0	dem															#88BA3F									OA02	no	2024-08-26_07h59.46.596	EXNAT_3_training	2024.1.0	2024-08-26 08h00.06.688381 +0200	
						2	0	2	0																													#2AB7EF	False	correct rejection	None	1500	text_03	75	3	0back_dual_main_click	0	"Herunterfallen,"															#88BA3F									OA02	no	2024-08-26_07h59.46.596	EXNAT_3_training	2024.1.0	2024-08-26 08h00.06.688381 +0200	
						2	0	2	0																													#F989A2	False	correct rejection	None	1500	text_03	76	3	0back_dual_main_click	0	sondern															#88BA3F									OA02	no	2024-08-26_07h59.46.596	EXNAT_3_training	2024.1.0	2024-08-26 08h00.06.688381 +0200	
						2	0	2	0																													#2AB7EF	False	correct rejection	None	1500	text_03	77	3	0back_dual_main_click	0	auch															#88BA3F									OA02	no	2024-08-26_07h59.46.596	EXNAT_3_training	2024.1.0	2024-08-26 08h00.06.688381 +0200	
						2	0	2	0																													#F989A2	False	correct rejection	None	1500	text_03	78	3	0back_dual_main_click	0	vor															#88BA3F									OA02	no	2024-08-26_07h59.46.596	EXNAT_3_training	2024.1.0	2024-08-26 08h00.06.688381 +0200	
						2	0	2	0																													#2AB7EF	False	correct rejection	None	1500	text_03	79	3	0back_dual_main_click	0	Feinden															#88BA3F									OA02	no	2024-08-26_07h59.46.596	EXNAT_3_training	2024.1.0	2024-08-26 08h00.06.688381 +0200	
						2	0	2	0																													#2AB7EF	False	correct rejection	None	1500	text_03	80	3	0back_dual_main_click	0	und															#88BA3F									OA02	no	2024-08-26_07h59.46.596	EXNAT_3_training	2024.1.0	2024-08-26 08h00.06.688381 +0200	
						2	0	2	0																													#88BA3F	True	hit	565.3350353240967	1500	text_03	81	3	0back_dual_main_click	0	Parasiten.															#88BA3F									OA02	no	2024-08-26_07h59.46.596	EXNAT_3_training	2024.1.0	2024-08-26 08h00.06.688381 +0200	
						2	0	2	0																													#2AB7EF	False	correct rejection	None	1500	text_03	82	3	0back_dual_main_click	0	So															#88BA3F									OA02	no	2024-08-26_07h59.46.596	EXNAT_3_training	2024.1.0	2024-08-26 08h00.06.688381 +0200	
						2	0	2	0																													#2AB7EF	False	correct rejection	None	1500	text_03	83	3	0back_dual_main_click	0	schlafen															#88BA3F									OA02	no	2024-08-26_07h59.46.596	EXNAT_3_training	2024.1.0	2024-08-26 08h00.06.688381 +0200	
						2	0	2	0																													#2AB7EF	False	correct rejection	None	1500	text_03	84	3	0back_dual_main_click	0	die															#88BA3F									OA02	no	2024-08-26_07h59.46.596	EXNAT_3_training	2024.1.0	2024-08-26 08h00.06.688381 +0200	
						2	0	2	0																													#88BA3F	True	hit	648.9119529724121	1500	text_03	85	3	0back_dual_main_click	0	Primaten															#88BA3F									OA02	no	2024-08-26_07h59.46.596	EXNAT_3_training	2024.1.0	2024-08-26 08h00.06.688381 +0200	
						2	0	2	0																													#88BA3F	True	hit	582.658052444458	1500	text_03	86	3	0back_dual_main_click	0	sicher															#88BA3F									OA02	no	2024-08-26_07h59.46.596	EXNAT_3_training	2024.1.0	2024-08-26 08h00.06.688381 +0200	
						2	0	2	0																													#88BA3F	True	hit	498.1100559234619	1500	text_03	87	3	0back_dual_main_click	0	und															#88BA3F									OA02	no	2024-08-26_07h59.46.596	EXNAT_3_training	2024.1.0	2024-08-26 08h00.06.688381 +0200	
						2	0	2	0																													#88BA3F	True	hit	531.9299697875977	1500	text_03	88	3	0back_dual_main_click	0	komfortabel															#88BA3F									OA02	no	2024-08-26_07h59.46.596	EXNAT_3_training	2024.1.0	2024-08-26 08h00.06.688381 +0200	
						2	0	2	0																													#88BA3F	True	hit	549.0880012512207	1500	text_03	89	3	0back_dual_main_click	0	in															#88BA3F									OA02	no	2024-08-26_07h59.46.596	EXNAT_3_training	2024.1.0	2024-08-26 08h00.06.688381 +0200	
						2	0	2	0																													#88BA3F	True	hit	448.6689567565918	1500	text_03	90	3	0back_dual_main_click	0	ihren															#88BA3F									OA02	no	2024-08-26_07h59.46.596	EXNAT_3_training	2024.1.0	2024-08-26 08h00.06.688381 +0200	
						2	0	2	0																													#F989A2	False	correct rejection	None	1500	text_03	91	3	0back_dual_main_click	0	Nestern.															#88BA3F									OA02	no	2024-08-26_07h59.46.596	EXNAT_3_training	2024.1.0	2024-08-26 08h00.06.688381 +0200	
						2	0	2	0																																		text_03			0back_dual_main_click			656.2240271568298	Q1	1	a	True	4	0																	OA02	no	2024-08-26_07h59.46.596	EXNAT_3_training	2024.1.0	2024-08-26 08h00.06.688381 +0200	
						2	0	2	0																																		text_03			0back_dual_main_click			662.4918720722198	Q2	2	b	False	4	0																	OA02	no	2024-08-26_07h59.46.596	EXNAT_3_training	2024.1.0	2024-08-26 08h00.06.688381 +0200	
						2	0	2	0																																		text_03			0back_dual_main_click			667.800045967102	Q3	2	b	True	4	0																	OA02	no	2024-08-26_07h59.46.596	EXNAT_3_training	2024.1.0	2024-08-26 08h00.06.688381 +0200	
						2	0	2	0																																															671.8643519878387	671.8643691539764	671.9038109779358	671.9038240909576	671.9133839607239	671.9133911132812	671.9304490089417										OA02	no	2024-08-26_07h59.46.596	EXNAT_3_training	2024.1.0	2024-08-26 08h00.06.688381 +0200	
						3	0	3	0	671.9462070465088																									671.9307761192322			#2AB7EF	False	correct rejection	None	1500		1	4	1back_single_training1	1																									OA02	no	2024-08-26_07h59.46.596	EXNAT_3_training	2024.1.0	2024-08-26 08h00.06.688381 +0200	
						3	0	3	0																													#D292F3	False	correct rejection	None	1500		2	4	1back_single_training1	1																									OA02	no	2024-08-26_07h59.46.596	EXNAT_3_training	2024.1.0	2024-08-26 08h00.06.688381 +0200	
						3	0	3	0																													#F989A2	False	correct rejection	None	1500		3	4	1back_single_training1	1																									OA02	no	2024-08-26_07h59.46.596	EXNAT_3_training	2024.1.0	2024-08-26 08h00.06.688381 +0200	
						3	0	3	0																													#88BA3F	False	correct rejection	None	1500		4	4	1back_single_training1	1																									OA02	no	2024-08-26_07h59.46.596	EXNAT_3_training	2024.1.0	2024-08-26 08h00.06.688381 +0200	
						3	0	3	0																													#F989A2	False	correct rejection	None	1500		5	4	1back_single_training1	1																									OA02	no	2024-08-26_07h59.46.596	EXNAT_3_training	2024.1.0	2024-08-26 08h00.06.688381 +0200	
						3	0	3	0																													#F989A2	True	hit	433.34317207336426	1500		6	4	1back_single_training1	1																									OA02	no	2024-08-26_07h59.46.596	EXNAT_3_training	2024.1.0	2024-08-26 08h00.06.688381 +0200	
						3	0	3	0																													#D292F3	False	correct rejection	None	1500		7	4	1back_single_training1	1																									OA02	no	2024-08-26_07h59.46.596	EXNAT_3_training	2024.1.0	2024-08-26 08h00.06.688381 +0200	
						3	0	3	0																													#88BA3F	False	correct rejection	None	1500		8	4	1back_single_training1	1																									OA02	no	2024-08-26_07h59.46.596	EXNAT_3_training	2024.1.0	2024-08-26 08h00.06.688381 +0200	
						3	0	3	0																													#88BA3F	True	hit	415.54903984069824	1500		9	4	1back_single_training1	1																									OA02	no	2024-08-26_07h59.46.596	EXNAT_3_training	2024.1.0	2024-08-26 08h00.06.688381 +0200	
						3	0	3	0																													#D292F3	False	correct rejection	None	1500		10	4	1back_single_training1	1																									OA02	no	2024-08-26_07h59.46.596	EXNAT_3_training	2024.1.0	2024-08-26 08h00.06.688381 +0200	
						3	0	3	0																													#2AB7EF	False	correct rejection	None	1500		11	4	1back_single_training1	1																									OA02	no	2024-08-26_07h59.46.596	EXNAT_3_training	2024.1.0	2024-08-26 08h00.06.688381 +0200	
						3	0	3	0																													#F989A2	False	correct rejection	None	1500		12	4	1back_single_training1	1																									OA02	no	2024-08-26_07h59.46.596	EXNAT_3_training	2024.1.0	2024-08-26 08h00.06.688381 +0200	
						3	0	3	0																													#F989A2	True	hit	400.097131729126	1500		13	4	1back_single_training1	1																									OA02	no	2024-08-26_07h59.46.596	EXNAT_3_training	2024.1.0	2024-08-26 08h00.06.688381 +0200	
						3	0	3	0																													#D292F3	False	correct rejection	None	1500		14	4	1back_single_training1	1																									OA02	no	2024-08-26_07h59.46.596	EXNAT_3_training	2024.1.0	2024-08-26 08h00.06.688381 +0200	
						3	0	3	0																													#D292F3	True	hit	418.3480739593506	1500		15	4	1back_single_training1	1																									OA02	no	2024-08-26_07h59.46.596	EXNAT_3_training	2024.1.0	2024-08-26 08h00.06.688381 +0200	
						3	0	3	0																													#D292F3	True	hit	583.6389064788818	1500		16	4	1back_single_training1	1																									OA02	no	2024-08-26_07h59.46.596	EXNAT_3_training	2024.1.0	2024-08-26 08h00.06.688381 +0200	
						3	0	3	0																													#F989A2	False	correct rejection	None	1500		17	4	1back_single_training1	1																									OA02	no	2024-08-26_07h59.46.596	EXNAT_3_training	2024.1.0	2024-08-26 08h00.06.688381 +0200	
						3	0	3	0																													#88BA3F	False	correct rejection	None	1500		18	4	1back_single_training1	1																									OA02	no	2024-08-26_07h59.46.596	EXNAT_3_training	2024.1.0	2024-08-26 08h00.06.688381 +0200	
						3	0	3	0																													#2AB7EF	False	correct rejection	None	1500		19	4	1back_single_training1	1																									OA02	no	2024-08-26_07h59.46.596	EXNAT_3_training	2024.1.0	2024-08-26 08h00.06.688381 +0200	
						3	0	3	0																													#88BA3F	False	correct rejection	None	1500		20	4	1back_single_training1	1																									OA02	no	2024-08-26_07h59.46.596	EXNAT_3_training	2024.1.0	2024-08-26 08h00.06.688381 +0200	
						3	0	3	0																													#2AB7EF	False	correct rejection	None	1500		1	6	1back_single_main	1																									OA02	no	2024-08-26_07h59.46.596	EXNAT_3_training	2024.1.0	2024-08-26 08h00.06.688381 +0200	
						3	0	3	0																													#D292F3	False	correct rejection	None	1500		2	6	1back_single_main	1																									OA02	no	2024-08-26_07h59.46.596	EXNAT_3_training	2024.1.0	2024-08-26 08h00.06.688381 +0200	
						3	0	3	0																													#88BA3F	False	correct rejection	None	1500		3	6	1back_single_main	1																									OA02	no	2024-08-26_07h59.46.596	EXNAT_3_training	2024.1.0	2024-08-26 08h00.06.688381 +0200	
						3	0	3	0																													#D292F3	False	correct rejection	None	1500		4	6	1back_single_main	1																									OA02	no	2024-08-26_07h59.46.596	EXNAT_3_training	2024.1.0	2024-08-26 08h00.06.688381 +0200	
						3	0	3	0																													#88BA3F	False	correct rejection	None	1500		5	6	1back_single_main	1																									OA02	no	2024-08-26_07h59.46.596	EXNAT_3_training	2024.1.0	2024-08-26 08h00.06.688381 +0200	
						3	0	3	0																													#88BA3F	True	hit	416.66197776794434	1500		6	6	1back_single_main	1																									OA02	no	2024-08-26_07h59.46.596	EXNAT_3_training	2024.1.0	2024-08-26 08h00.06.688381 +0200	
						3	0	3	0																													#F989A2	False	correct rejection	None	1500		7	6	1back_single_main	1																									OA02	no	2024-08-26_07h59.46.596	EXNAT_3_training	2024.1.0	2024-08-26 08h00.06.688381 +0200	
						3	0	3	0																													#2AB7EF	False	correct rejection	None	1500		8	6	1back_single_main	1																									OA02	no	2024-08-26_07h59.46.596	EXNAT_3_training	2024.1.0	2024-08-26 08h00.06.688381 +0200	
						3	0	3	0																													#F989A2	False	correct rejection	None	1500		9	6	1back_single_main	1																									OA02	no	2024-08-26_07h59.46.596	EXNAT_3_training	2024.1.0	2024-08-26 08h00.06.688381 +0200	
						3	0	3	0																													#D292F3	False	correct rejection	None	1500		10	6	1back_single_main	1																									OA02	no	2024-08-26_07h59.46.596	EXNAT_3_training	2024.1.0	2024-08-26 08h00.06.688381 +0200	
						3	0	3	0																													#F989A2	False	correct rejection	None	1500		11	6	1back_single_main	1																									OA02	no	2024-08-26_07h59.46.596	EXNAT_3_training	2024.1.0	2024-08-26 08h00.06.688381 +0200	
						3	0	3	0																													#2AB7EF	False	correct rejection	None	1500		12	6	1back_single_main	1																									OA02	no	2024-08-26_07h59.46.596	EXNAT_3_training	2024.1.0	2024-08-26 08h00.06.688381 +0200	
						3	0	3	0																													#F989A2	False	correct rejection	None	1500		13	6	1back_single_main	1																									OA02	no	2024-08-26_07h59.46.596	EXNAT_3_training	2024.1.0	2024-08-26 08h00.06.688381 +0200	
						3	0	3	0																													#2AB7EF	False	correct rejection	None	1500		14	6	1back_single_main	1																									OA02	no	2024-08-26_07h59.46.596	EXNAT_3_training	2024.1.0	2024-08-26 08h00.06.688381 +0200	
						3	0	3	0																													#D292F3	False	correct rejection	None	1500		15	6	1back_single_main	1																									OA02	no	2024-08-26_07h59.46.596	EXNAT_3_training	2024.1.0	2024-08-26 08h00.06.688381 +0200	
						3	0	3	0																													#88BA3F	False	correct rejection	None	1500		16	6	1back_single_main	1																									OA02	no	2024-08-26_07h59.46.596	EXNAT_3_training	2024.1.0	2024-08-26 08h00.06.688381 +0200	
						3	0	3	0																													#2AB7EF	False	correct rejection	None	1500		17	6	1back_single_main	1																									OA02	no	2024-08-26_07h59.46.596	EXNAT_3_training	2024.1.0	2024-08-26 08h00.06.688381 +0200	
						3	0	3	0																													#F989A2	False	correct rejection	None	1500		18	6	1back_single_main	1																									OA02	no	2024-08-26_07h59.46.596	EXNAT_3_training	2024.1.0	2024-08-26 08h00.06.688381 +0200	
						3	0	3	0																													#88BA3F	False	correct rejection	None	1500		19	6	1back_single_main	1																									OA02	no	2024-08-26_07h59.46.596	EXNAT_3_training	2024.1.0	2024-08-26 08h00.06.688381 +0200	
						3	0	3	0																													#D292F3	False	correct rejection	None	1500		20	6	1back_single_main	1																									OA02	no	2024-08-26_07h59.46.596	EXNAT_3_training	2024.1.0	2024-08-26 08h00.06.688381 +0200	
						3	0	3	0																													#88BA3F	False	correct rejection	None	1500		21	6	1back_single_main	1																									OA02	no	2024-08-26_07h59.46.596	EXNAT_3_training	2024.1.0	2024-08-26 08h00.06.688381 +0200	
						3	0	3	0																													#D292F3	False	correct rejection	None	1500		22	6	1back_single_main	1																									OA02	no	2024-08-26_07h59.46.596	EXNAT_3_training	2024.1.0	2024-08-26 08h00.06.688381 +0200	
						3	0	3	0																													#2AB7EF	False	correct rejection	None	1500		23	6	1back_single_main	1																									OA02	no	2024-08-26_07h59.46.596	EXNAT_3_training	2024.1.0	2024-08-26 08h00.06.688381 +0200	
						3	0	3	0																													#F989A2	False	correct rejection	None	1500		24	6	1back_single_main	1																									OA02	no	2024-08-26_07h59.46.596	EXNAT_3_training	2024.1.0	2024-08-26 08h00.06.688381 +0200	
						3	0	3	0																													#2AB7EF	False	correct rejection	None	1500		25	6	1back_single_main	1																									OA02	no	2024-08-26_07h59.46.596	EXNAT_3_training	2024.1.0	2024-08-26 08h00.06.688381 +0200	
						3	0	3	0																													#88BA3F	False	correct rejection	None	1500		26	6	1back_single_main	1																									OA02	no	2024-08-26_07h59.46.596	EXNAT_3_training	2024.1.0	2024-08-26 08h00.06.688381 +0200	
						3	0	3	0																													#D292F3	False	correct rejection	None	1500		27	6	1back_single_main	1																									OA02	no	2024-08-26_07h59.46.596	EXNAT_3_training	2024.1.0	2024-08-26 08h00.06.688381 +0200	
						3	0	3	0																													#88BA3F	False	correct rejection	None	1500		28	6	1back_single_main	1																									OA02	no	2024-08-26_07h59.46.596	EXNAT_3_training	2024.1.0	2024-08-26 08h00.06.688381 +0200	
						3	0	3	0																													#F989A2	False	correct rejection	None	1500		29	6	1back_single_main	1																									OA02	no	2024-08-26_07h59.46.596	EXNAT_3_training	2024.1.0	2024-08-26 08h00.06.688381 +0200	
						3	0	3	0																													#2AB7EF	False	correct rejection	None	1500		30	6	1back_single_main	1																									OA02	no	2024-08-26_07h59.46.596	EXNAT_3_training	2024.1.0	2024-08-26 08h00.06.688381 +0200	
						3	0	3	0																													#F989A2	False	correct rejection	None	1500		31	6	1back_single_main	1																									OA02	no	2024-08-26_07h59.46.596	EXNAT_3_training	2024.1.0	2024-08-26 08h00.06.688381 +0200	
						3	0	3	0																													#D292F3	False	correct rejection	None	1500		32	6	1back_single_main	1																									OA02	no	2024-08-26_07h59.46.596	EXNAT_3_training	2024.1.0	2024-08-26 08h00.06.688381 +0200	
						3	0	3	0																													#2AB7EF	False	correct rejection	None	1500		33	6	1back_single_main	1																									OA02	no	2024-08-26_07h59.46.596	EXNAT_3_training	2024.1.0	2024-08-26 08h00.06.688381 +0200	
						3	0	3	0																													#2AB7EF	True	hit	417.16599464416504	1500		34	6	1back_single_main	1																									OA02	no	2024-08-26_07h59.46.596	EXNAT_3_training	2024.1.0	2024-08-26 08h00.06.688381 +0200	
						3	0	3	0																													#88BA3F	False	correct rejection	None	1500		35	6	1back_single_main	1																									OA02	no	2024-08-26_07h59.46.596	EXNAT_3_training	2024.1.0	2024-08-26 08h00.06.688381 +0200	
						3	0	3	0																													#F989A2	False	correct rejection	None	1500		36	6	1back_single_main	1																									OA02	no	2024-08-26_07h59.46.596	EXNAT_3_training	2024.1.0	2024-08-26 08h00.06.688381 +0200	
						3	0	3	0																													#F989A2	True	hit	433.3789348602295	1500		37	6	1back_single_main	1																									OA02	no	2024-08-26_07h59.46.596	EXNAT_3_training	2024.1.0	2024-08-26 08h00.06.688381 +0200	
						3	0	3	0																													#88BA3F	False	correct rejection	None	1500		38	6	1back_single_main	1																									OA02	no	2024-08-26_07h59.46.596	EXNAT_3_training	2024.1.0	2024-08-26 08h00.06.688381 +0200	
						3	0	3	0																													#88BA3F	True	hit	433.90798568725586	1500		39	6	1back_single_main	1																									OA02	no	2024-08-26_07h59.46.596	EXNAT_3_training	2024.1.0	2024-08-26 08h00.06.688381 +0200	
						3	0	3	0																													#D292F3	False	correct rejection	None	1500		40	6	1back_single_main	1																									OA02	no	2024-08-26_07h59.46.596	EXNAT_3_training	2024.1.0	2024-08-26 08h00.06.688381 +0200	
						3	0	3	0																													#D292F3	True	hit	433.78496170043945	1500		41	6	1back_single_main	1																									OA02	no	2024-08-26_07h59.46.596	EXNAT_3_training	2024.1.0	2024-08-26 08h00.06.688381 +0200	
						3	0	3	0																													#2AB7EF	False	correct rejection	None	1500		42	6	1back_single_main	1																									OA02	no	2024-08-26_07h59.46.596	EXNAT_3_training	2024.1.0	2024-08-26 08h00.06.688381 +0200	
						3	0	3	0																													#F989A2	False	correct rejection	None	1500		43	6	1back_single_main	1																									OA02	no	2024-08-26_07h59.46.596	EXNAT_3_training	2024.1.0	2024-08-26 08h00.06.688381 +0200	
						3	0	3	0																													#F989A2	True	hit	448.99797439575195	1500		44	6	1back_single_main	1																									OA02	no	2024-08-26_07h59.46.596	EXNAT_3_training	2024.1.0	2024-08-26 08h00.06.688381 +0200	
						3	0	3	0																													#2AB7EF	False	correct rejection	None	1500		45	6	1back_single_main	1																									OA02	no	2024-08-26_07h59.46.596	EXNAT_3_training	2024.1.0	2024-08-26 08h00.06.688381 +0200	
						3	0	3	0																													#2AB7EF	True	hit	400.46119689941406	1500		46	6	1back_single_main	1																									OA02	no	2024-08-26_07h59.46.596	EXNAT_3_training	2024.1.0	2024-08-26 08h00.06.688381 +0200	
						3	0	3	0																													#88BA3F	False	correct rejection	None	1500		47	6	1back_single_main	1																									OA02	no	2024-08-26_07h59.46.596	EXNAT_3_training	2024.1.0	2024-08-26 08h00.06.688381 +0200	
						3	0	3	0																													#D292F3	False	correct rejection	None	1500		48	6	1back_single_main	1																									OA02	no	2024-08-26_07h59.46.596	EXNAT_3_training	2024.1.0	2024-08-26 08h00.06.688381 +0200	
						3	0	3	0																													#D292F3	True	hit	416.7308807373047	1500		49	6	1back_single_main	1																									OA02	no	2024-08-26_07h59.46.596	EXNAT_3_training	2024.1.0	2024-08-26 08h00.06.688381 +0200	
						3	0	3	0																													#2AB7EF	False	correct rejection	None	1500		50	6	1back_single_main	1																									OA02	no	2024-08-26_07h59.46.596	EXNAT_3_training	2024.1.0	2024-08-26 08h00.06.688381 +0200	
						3	0	3	0																													#88BA3F	False	correct rejection	None	1500		51	6	1back_single_main	1																									OA02	no	2024-08-26_07h59.46.596	EXNAT_3_training	2024.1.0	2024-08-26 08h00.06.688381 +0200	
						3	0	3	0																													#F989A2	False	correct rejection	None	1500		52	6	1back_single_main	1																									OA02	no	2024-08-26_07h59.46.596	EXNAT_3_training	2024.1.0	2024-08-26 08h00.06.688381 +0200	
						3	0	3	0																													#F989A2	True	hit	433.866024017334	1500		53	6	1back_single_main	1																									OA02	no	2024-08-26_07h59.46.596	EXNAT_3_training	2024.1.0	2024-08-26 08h00.06.688381 +0200	
						3	0	3	0																													#D292F3	False	correct rejection	None	1500		54	6	1back_single_main	1																									OA02	no	2024-08-26_07h59.46.596	EXNAT_3_training	2024.1.0	2024-08-26 08h00.06.688381 +0200	
						3	0	3	0																													#F989A2	False	correct rejection	None	1500		55	6	1back_single_main	1																									OA02	no	2024-08-26_07h59.46.596	EXNAT_3_training	2024.1.0	2024-08-26 08h00.06.688381 +0200	
						3	0	3	0																													#2AB7EF	False	correct rejection	None	1500		56	6	1back_single_main	1																									OA02	no	2024-08-26_07h59.46.596	EXNAT_3_training	2024.1.0	2024-08-26 08h00.06.688381 +0200	
						3	0	3	0																													#D292F3	False	correct rejection	None	1500		57	6	1back_single_main	1																									OA02	no	2024-08-26_07h59.46.596	EXNAT_3_training	2024.1.0	2024-08-26 08h00.06.688381 +0200	
						3	0	3	0																													#2AB7EF	False	correct rejection	None	1500		58	6	1back_single_main	1																									OA02	no	2024-08-26_07h59.46.596	EXNAT_3_training	2024.1.0	2024-08-26 08h00.06.688381 +0200	
						3	0	3	0																													#88BA3F	False	correct rejection	None	1500		59	6	1back_single_main	1																									OA02	no	2024-08-26_07h59.46.596	EXNAT_3_training	2024.1.0	2024-08-26 08h00.06.688381 +0200	
						3	0	3	0																													#88BA3F	True	hit	398.8521099090576	1500		60	6	1back_single_main	1																									OA02	no	2024-08-26_07h59.46.596	EXNAT_3_training	2024.1.0	2024-08-26 08h00.06.688381 +0200	
						3	0	3	0																											879.6995561122894	879.6995651721954	#F989A2	False	correct rejection	None	2000	text_04	1	7	1back_dual_main_click	1	Manche																								OA02	no	2024-08-26_07h59.46.596	EXNAT_3_training	2024.1.0	2024-08-26 08h00.06.688381 +0200	
						3	0	3	0																													#D292F3	False	correct rejection	None	2000	text_04	2	7	1back_dual_main_click	1	Orte																								OA02	no	2024-08-26_07h59.46.596	EXNAT_3_training	2024.1.0	2024-08-26 08h00.06.688381 +0200	
						3	0	3	0																													#2AB7EF	False	correct rejection	None	2000	text_04	3	7	1back_dual_main_click	1	sind																								OA02	no	2024-08-26_07h59.46.596	EXNAT_3_training	2024.1.0	2024-08-26 08h00.06.688381 +0200	
						3	0	3	0																													#88BA3F	False	correct rejection	None	2000	text_04	4	7	1back_dual_main_click	1	nur																								OA02	no	2024-08-26_07h59.46.596	EXNAT_3_training	2024.1.0	2024-08-26 08h00.06.688381 +0200	
						3	0	3	0																													#2AB7EF	False	correct rejection	None	2000	text_04	5	7	1back_dual_main_click	1	aus																								OA02	no	2024-08-26_07h59.46.596	EXNAT_3_training	2024.1.0	2024-08-26 08h00.06.688381 +0200	
						3	0	3	0																													#F989A2	False	correct rejection	None	2000	text_04	6	7	1back_dual_main_click	1	der																								OA02	no	2024-08-26_07h59.46.596	EXNAT_3_training	2024.1.0	2024-08-26 08h00.06.688381 +0200	
						3	0	3	0																													#88BA3F	False	correct rejection	None	2000	text_04	7	7	1back_dual_main_click	1	Luft																								OA02	no	2024-08-26_07h59.46.596	EXNAT_3_training	2024.1.0	2024-08-26 08h00.06.688381 +0200	
						3	0	3	0																													#D292F3	False	correct rejection	None	2000	text_04	8	7	1back_dual_main_click	1	wirklich																								OA02	no	2024-08-26_07h59.46.596	EXNAT_3_training	2024.1.0	2024-08-26 08h00.06.688381 +0200	
						3	0	3	0																													#F989A2	False	correct rejection	None	2000	text_04	9	7	1back_dual_main_click	1	zugänglich.																								OA02	no	2024-08-26_07h59.46.596	EXNAT_3_training	2024.1.0	2024-08-26 08h00.06.688381 +0200	
						3	0	3	0																													#D292F3	False	correct rejection	None	2000	text_04	10	7	1back_dual_main_click	1	Bertus																								OA02	no	2024-08-26_07h59.46.596	EXNAT_3_training	2024.1.0	2024-08-26 08h00.06.688381 +0200	
						3	0	3	0																													#88BA3F	False	correct rejection	None	2000	text_04	11	7	1back_dual_main_click	1	Schoeman																								OA02	no	2024-08-26_07h59.46.596	EXNAT_3_training	2024.1.0	2024-08-26 08h00.06.688381 +0200	
						3	0	3	0																													#2AB7EF	False	correct rejection	None	2000	text_04	12	7	1back_dual_main_click	1	fliegt																								OA02	no	2024-08-26_07h59.46.596	EXNAT_3_training	2024.1.0	2024-08-26 08h00.06.688381 +0200	
						3	0	3	0																													#F989A2	False	correct rejection	None	2000	text_04	13	7	1back_dual_main_click	1	oft																								OA02	no	2024-08-26_07h59.46.596	EXNAT_3_training	2024.1.0	2024-08-26 08h00.06.688381 +0200	
						3	0	3	0																													#D292F3	False	correct rejection	None	2000	text_04	14	7	1back_dual_main_click	1	mit																								OA02	no	2024-08-26_07h59.46.596	EXNAT_3_training	2024.1.0	2024-08-26 08h00.06.688381 +0200	
						3	0	3	0																													#F989A2	False	correct rejection	None	2000	text_04	15	7	1back_dual_main_click	1	seinem																								OA02	no	2024-08-26_07h59.46.596	EXNAT_3_training	2024.1.0	2024-08-26 08h00.06.688381 +0200	
						3	0	3	0																													#F989A2	True	hit	765.5670642852783	2000	text_04	16	7	1back_dual_main_click	1	Flugzeug																								OA02	no	2024-08-26_07h59.46.596	EXNAT_3_training	2024.1.0	2024-08-26 08h00.06.688381 +0200	
						3	0	3	0																													#88BA3F	False	correct rejection	None	2000	text_04	17	7	1back_dual_main_click	1	über																								OA02	no	2024-08-26_07h59.46.596	EXNAT_3_training	2024.1.0	2024-08-26 08h00.06.688381 +0200	
						3	0	3	0																													#2AB7EF	False	correct rejection	None	2000	text_04	18	7	1back_dual_main_click	1	die																								OA02	no	2024-08-26_07h59.46.596	EXNAT_3_training	2024.1.0	2024-08-26 08h00.06.688381 +0200	
						3	0	3	0																													#D292F3	False	correct rejection	None	2000	text_04	19	7	1back_dual_main_click	1	"unwirtliche,"																								OA02	no	2024-08-26_07h59.46.596	EXNAT_3_training	2024.1.0	2024-08-26 08h00.06.688381 +0200	
						3	0	3	0																													#88BA3F	False	correct rejection	None	2000	text_04	20	7	1back_dual_main_click	1	aber																								OA02	no	2024-08-26_07h59.46.596	EXNAT_3_training	2024.1.0	2024-08-26 08h00.06.688381 +0200	
						3	0	3	0																													#88BA3F	True	hit	532.1948528289795	2000	text_04	21	7	1back_dual_main_click	1	trotzdem																								OA02	no	2024-08-26_07h59.46.596	EXNAT_3_training	2024.1.0	2024-08-26 08h00.06.688381 +0200	
						3	0	3	0																													#2AB7EF	False	correct rejection	None	2000	text_04	22	7	1back_dual_main_click	1	wunderschöne																								OA02	no	2024-08-26_07h59.46.596	EXNAT_3_training	2024.1.0	2024-08-26 08h00.06.688381 +0200	
						3	0	3	0																													#D292F3	False	correct rejection	None	2000	text_04	23	7	1back_dual_main_click	1	Küste																								OA02	no	2024-08-26_07h59.46.596	EXNAT_3_training	2024.1.0	2024-08-26 08h00.06.688381 +0200	
						3	0	3	0																													#2AB7EF	False	correct rejection	None	2000	text_04	24	7	1back_dual_main_click	1	Namibias.																								OA02	no	2024-08-26_07h59.46.596	EXNAT_3_training	2024.1.0	2024-08-26 08h00.06.688381 +0200	
						3	0	3	0																													#D292F3	False	correct rejection	None	2000	text_04	25	7	1back_dual_main_click	1	Er																								OA02	no	2024-08-26_07h59.46.596	EXNAT_3_training	2024.1.0	2024-08-26 08h00.06.688381 +0200	
						3	0	3	0																													#88BA3F	False	correct rejection	None	2000	text_04	26	7	1back_dual_main_click	1	zeigt																								OA02	no	2024-08-26_07h59.46.596	EXNAT_3_training	2024.1.0	2024-08-26 08h00.06.688381 +0200	
						3	0	3	0																													#88BA3F	True	hit	665.6820774078369	2000	text_04	27	7	1back_dual_main_click	1	Touristen																								OA02	no	2024-08-26_07h59.46.596	EXNAT_3_training	2024.1.0	2024-08-26 08h00.06.688381 +0200	
						3	0	3	0																													#D292F3	False	correct rejection	None	2000	text_04	28	7	1back_dual_main_click	1	die																								OA02	no	2024-08-26_07h59.46.596	EXNAT_3_training	2024.1.0	2024-08-26 08h00.06.688381 +0200	
						3	0	3	0																													#D292F3	True	hit	598.1638431549072	2000	text_04	29	7	1back_dual_main_click	1	beeindruckenden																								OA02	no	2024-08-26_07h59.46.596	EXNAT_3_training	2024.1.0	2024-08-26 08h00.06.688381 +0200	
						3	0	3	0																													#F989A2	False	correct rejection	None	2000	text_04	30	7	1back_dual_main_click	1	Schiffswracks																								OA02	no	2024-08-26_07h59.46.596	EXNAT_3_training	2024.1.0	2024-08-26 08h00.06.688381 +0200	
						3	0	3	0																													#2AB7EF	False	correct rejection	None	2000	text_04	31	7	1back_dual_main_click	1	und																								OA02	no	2024-08-26_07h59.46.596	EXNAT_3_training	2024.1.0	2024-08-26 08h00.06.688381 +0200	
						3	0	3	0																													#2AB7EF	True	hit	566.2329196929932	2000	text_04	32	7	1back_dual_main_click	1	die																								OA02	no	2024-08-26_07h59.46.596	EXNAT_3_training	2024.1.0	2024-08-26 08h00.06.688381 +0200	
						3	0	3	0																													#2AB7EF	True	hit	532.0861339569092	2000	text_04	33	7	1back_dual_main_click	1	einzigartigen																								OA02	no	2024-08-26_07h59.46.596	EXNAT_3_training	2024.1.0	2024-08-26 08h00.06.688381 +0200	
						3	0	3	0																													#F989A2	False	correct rejection	None	2000	text_04	34	7	1back_dual_main_click	1	Landschaften																								OA02	no	2024-08-26_07h59.46.596	EXNAT_3_training	2024.1.0	2024-08-26 08h00.06.688381 +0200	
						3	0	3	0																													#F989A2	True	hit	598.6409187316895	2000	text_04	35	7	1back_dual_main_click	1	von																								OA02	no	2024-08-26_07h59.46.596	EXNAT_3_training	2024.1.0	2024-08-26 08h00.06.688381 +0200	
						3	0	3	0																													#88BA3F	False	correct rejection	None	2000	text_04	36	7	1back_dual_main_click	1	oben.																								OA02	no	2024-08-26_07h59.46.596	EXNAT_3_training	2024.1.0	2024-08-26 08h00.06.688381 +0200	
						3	0	3	0																													#F989A2	False	correct rejection	None	2000	text_04	37	7	1back_dual_main_click	1	Vom																								OA02	no	2024-08-26_07h59.46.596	EXNAT_3_training	2024.1.0	2024-08-26 08h00.06.688381 +0200	
						3	0	3	0																													#2AB7EF	False	correct rejection	None	2000	text_04	38	7	1back_dual_main_click	1	Flugzeug																								OA02	no	2024-08-26_07h59.46.596	EXNAT_3_training	2024.1.0	2024-08-26 08h00.06.688381 +0200	
						3	0	3	0																													#88BA3F	False	correct rejection	None	2000	text_04	39	7	1back_dual_main_click	1	aus																								OA02	no	2024-08-26_07h59.46.596	EXNAT_3_training	2024.1.0	2024-08-26 08h00.06.688381 +0200	
						3	0	3	0																													#D292F3	False	correct rejection	None	2000	text_04	40	7	1back_dual_main_click	1	sieht																								OA02	no	2024-08-26_07h59.46.596	EXNAT_3_training	2024.1.0	2024-08-26 08h00.06.688381 +0200	
						3	0	3	0																													#F989A2	False	correct rejection	None	2000	text_04	41	7	1back_dual_main_click	1	man																								OA02	no	2024-08-26_07h59.46.596	EXNAT_3_training	2024.1.0	2024-08-26 08h00.06.688381 +0200	
						3	0	3	0																													#D292F3	False	false alarm	566.2391185760498	2000	text_04	42	7	1back_dual_main_click	1	die																								OA02	no	2024-08-26_07h59.46.596	EXNAT_3_training	2024.1.0	2024-08-26 08h00.06.688381 +0200	
						3	0	3	0																													#88BA3F	False	correct rejection	None	2000	text_04	43	7	1back_dual_main_click	1	Küste																								OA02	no	2024-08-26_07h59.46.596	EXNAT_3_training	2024.1.0	2024-08-26 08h00.06.688381 +0200	
						3	0	3	0																													#D292F3	False	correct rejection	None	2000	text_04	44	7	1back_dual_main_click	1	des																								OA02	no	2024-08-26_07h59.46.596	EXNAT_3_training	2024.1.0	2024-08-26 08h00.06.688381 +0200	
						3	0	3	0																													#F989A2	False	correct rejection	None	2000	text_04	45	7	1back_dual_main_click	1	"Landes,"																								OA02	no	2024-08-26_07h59.46.596	EXNAT_3_training	2024.1.0	2024-08-26 08h00.06.688381 +0200	
						3	0	3	0																													#2AB7EF	False	correct rejection	None	2000	text_04	46	7	1back_dual_main_click	1	die																								OA02	no	2024-08-26_07h59.46.596	EXNAT_3_training	2024.1.0	2024-08-26 08h00.06.688381 +0200	
						3	0	3	0																													#2AB7EF	True	hit	782.5291156768799	2000	text_04	47	7	1back_dual_main_click	1	sich																								OA02	no	2024-08-26_07h59.46.596	EXNAT_3_training	2024.1.0	2024-08-26 08h00.06.688381 +0200	
						3	0	3	0																													#88BA3F	False	correct rejection	None	2000	text_04	48	7	1back_dual_main_click	1	von																								OA02	no	2024-08-26_07h59.46.596	EXNAT_3_training	2024.1.0	2024-08-26 08h00.06.688381 +0200	
						3	0	3	0																													#D292F3	False	correct rejection	None	2000	text_04	49	7	1back_dual_main_click	1	Südafrika																								OA02	no	2024-08-26_07h59.46.596	EXNAT_3_training	2024.1.0	2024-08-26 08h00.06.688381 +0200	
						3	0	3	0																													#88BA3F	False	correct rejection	None	2000	text_04	50	7	1back_dual_main_click	1	bis																								OA02	no	2024-08-26_07h59.46.596	EXNAT_3_training	2024.1.0	2024-08-26 08h00.06.688381 +0200	
						3	0	3	0																													#2AB7EF	False	correct rejection	None	2000	text_04	51	7	1back_dual_main_click	1	nach																								OA02	no	2024-08-26_07h59.46.596	EXNAT_3_training	2024.1.0	2024-08-26 08h00.06.688381 +0200	
						3	0	3	0																													#88BA3F	False	correct rejection	None	2000	text_04	52	7	1back_dual_main_click	1	Angola																								OA02	no	2024-08-26_07h59.46.596	EXNAT_3_training	2024.1.0	2024-08-26 08h00.06.688381 +0200	
						3	0	3	0																													#D292F3	False	correct rejection	None	2000	text_04	53	7	1back_dual_main_click	1	erstreckt.																								OA02	no	2024-08-26_07h59.46.596	EXNAT_3_training	2024.1.0	2024-08-26 08h00.06.688381 +0200	
						3	0	3	0																													#F989A2	False	correct rejection	None	2000	text_04	54	7	1back_dual_main_click	1	Auch																								OA02	no	2024-08-26_07h59.46.596	EXNAT_3_training	2024.1.0	2024-08-26 08h00.06.688381 +0200	
						3	0	3	0																													#F989A2	True	hit	531.8670272827148	2000	text_04	55	7	1back_dual_main_click	1	verschiedene																								OA02	no	2024-08-26_07h59.46.596	EXNAT_3_training	2024.1.0	2024-08-26 08h00.06.688381 +0200	
