DisplayImage	corrAns	ishihara_pics.thisRepN	ishihara_pics.thisTrialN	ishihara_pics.thisN	ishihara_pics.thisIndex	blocks.thisRepN	blocks.thisTrialN	blocks.thisN	blocks.thisIndex	thisRow.t	notes	Settings.started	Settings.stopped	demographics.started	demographics.stopped	demographic_form.index	demographic_form.itemText	demographic_form.type	demographic_form.font	demographic_form.markerColor	demographic_form.response	demographic_form.rt	education.started	education.stopped	edu_form.index	edu_form.itemText	edu_form.type	edu_form.font	edu_form.markerColor	edu_form.response	edu_form.rt	Ishihara.started	Ishihara.stopped	ishihara_number.text	no_text_blocks_self_paced.started	no_text_blocks_self_paced.stopped	text_blocks_self_paced.started	colour	target	nback_response	nback_RT	duration	text_nr	trial_nr	block_nr	block_name	block_kind	word	global_onset_time	question	button_pressed	chosen_ans	ans_correct	block_nr_exp	n-back_level	text_blocks_self_paced.stopped	text_blocks_paced.started	text_blocks_paced.stopped	no_text_blocks_paced.started	no_text_blocks_paced.stopped	pseudotext.started	pseudotext.stopped	curr_0back_target	RT_per_letter_baseline	RT_per_letter_0back	RT_per_letter_1bck	RT_per_letter_2bck	RT_per_rect_1back_single	RT_per_rect_2back_single	end.started	end.stopped	participant	testing_mode	date	expName	psychopyVersion	expStart	
												0.015144824981689453	0.015484809875488281																																																											OA03	no	2024-08-26_09h24.51.760	EXNAT_3_training	2024.1.0	2024-08-26 09h39.27.655903 +0200	
														0.015497922897338867	56.90625500679016	0.0	Willkommen zum Experiment!	heading	None	None																																																				OA03	no	2024-08-26_09h24.51.760	EXNAT_3_training	2024.1.0	2024-08-26 09h39.27.655903 +0200	
																0.0	Bitte beantworten Sie zunächst die folgenden Fragen:	description	None	None																																																				OA03	no	2024-08-26_09h24.51.760	EXNAT_3_training	2024.1.0	2024-08-26 09h39.27.655903 +0200	
																gender	Welches Geschlecht steht in Ihrem Ausweis?	radio	None	None	Weiblich	10.050299167633057																																																		OA03	no	2024-08-26_09h24.51.760	EXNAT_3_training	2024.1.0	2024-08-26 09h39.27.655903 +0200	
																age	Wie alt sind Sie?	free text	None	None	71	None																																																		OA03	no	2024-08-26_09h24.51.760	EXNAT_3_training	2024.1.0	2024-08-26 09h39.27.655903 +0200	
																language	Ist Deutsch Ihre Muttersprache?	radio	None	None	Ja	26.456214904785156																																																		OA03	no	2024-08-26_09h24.51.760	EXNAT_3_training	2024.1.0	2024-08-26 09h39.27.655903 +0200	
																dyslexia	Haben Sie eine Leseschwäche?	radio	None	None	Nein	30.296255111694336																																																		OA03	no	2024-08-26_09h24.51.760	EXNAT_3_training	2024.1.0	2024-08-26 09h39.27.655903 +0200	
																vision_glasses	Tragen Sie eine Brille?	radio	None	None	Ja	11.890719890594482																																																		OA03	no	2024-08-26_09h24.51.760	EXNAT_3_training	2024.1.0	2024-08-26 09h39.27.655903 +0200	
																vision_lenses	Tragen Sie Kontaktlinsen?	radio	None	None	Nein	21.318156957626343																																																		OA03	no	2024-08-26_09h24.51.760	EXNAT_3_training	2024.1.0	2024-08-26 09h39.27.655903 +0200	
																handedness	Sind Sie rechtshändig?	radio	None	None	Ja	25.610877990722656																																																		OA03	no	2024-08-26_09h24.51.760	EXNAT_3_training	2024.1.0	2024-08-26 09h39.27.655903 +0200	
																																																																								OA03	no	2024-08-26_09h24.51.760	EXNAT_3_training	2024.1.0	2024-08-26 09h39.27.655903 +0200	
																							56.90639686584473	175.97148990631104	0.0	Bitte beantworten Sie die folgenden Fragen zu Ihrer Ausbildung:	description	None	None																																											OA03	no	2024-08-26_09h24.51.760	EXNAT_3_training	2024.1.0	2024-08-26 09h39.27.655903 +0200	
																									education	Was ist Ihr höchster Bildungsabschluss?	radio	None	None	abgeschlossenes Studium	7.640377044677734																																									OA03	no	2024-08-26_09h24.51.760	EXNAT_3_training	2024.1.0	2024-08-26 09h39.27.655903 +0200	
																									edu_intro	Wie viele Jahre verbrachten Sie insgesamt mit:	description	None	None																																											OA03	no	2024-08-26_09h24.51.760	EXNAT_3_training	2024.1.0	2024-08-26 09h39.27.655903 +0200	
																									edu_school_years	Schule	free text	None	None	13	None																																									OA03	no	2024-08-26_09h24.51.760	EXNAT_3_training	2024.1.0	2024-08-26 09h39.27.655903 +0200	
																									edu_eveningschool_years	Abendschule	free text	None	None	0	None																																									OA03	no	2024-08-26_09h24.51.760	EXNAT_3_training	2024.1.0	2024-08-26 09h39.27.655903 +0200	
																									edu_training_years	Ausbildung	free text	None	None	0	None																																									OA03	no	2024-08-26_09h24.51.760	EXNAT_3_training	2024.1.0	2024-08-26 09h39.27.655903 +0200	
																									edu_training_GDR_years	Fachschule	free text	None	None	0	None																																									OA03	no	2024-08-26_09h24.51.760	EXNAT_3_training	2024.1.0	2024-08-26 09h39.27.655903 +0200	
																									edu_uni_years	Universität/Hochschule	free text	None	None	10	None																																									OA03	no	2024-08-26_09h24.51.760	EXNAT_3_training	2024.1.0	2024-08-26 09h39.27.655903 +0200	
																									edu_other_years	Sonstiges	free text	None	None	0	None																																									OA03	no	2024-08-26_09h24.51.760	EXNAT_3_training	2024.1.0	2024-08-26 09h39.27.655903 +0200	
																									edu_profession	Was ist Ihr derzeitiger/letzter Beruf?	free text	None	None	Wirtschaftskontrolleurin	None																																									OA03	no	2024-08-26_09h24.51.760	EXNAT_3_training	2024.1.0	2024-08-26 09h39.27.655903 +0200	
																																																																								OA03	no	2024-08-26_09h24.51.760	EXNAT_3_training	2024.1.0	2024-08-26 09h39.27.655903 +0200	
																																																																								OA03	no	2024-08-26_09h24.51.760	EXNAT_3_training	2024.1.0	2024-08-26 09h39.27.655903 +0200	
Stimuli_and_Resources/Ishihara_Colour_Vision_Test/ishihara_test2_17.png	17	0	0	0	1					182.2662799358368																						182.2076449394226	186.64277696609497	17																																						OA03	no	2024-08-26_09h24.51.760	EXNAT_3_training	2024.1.0	2024-08-26 09h39.27.655903 +0200	
Stimuli_and_Resources/Ishihara_Colour_Vision_Test/ishihara_test5_23.png	23	0	1	1	4					187.69351482391357																						187.64433479309082	192.88659477233887	23																																						OA03	no	2024-08-26_09h24.51.760	EXNAT_3_training	2024.1.0	2024-08-26 09h39.27.655903 +0200	
Stimuli_and_Resources/Ishihara_Colour_Vision_Test/ishihara_test3_21.png	21	0	2	2	2					193.93771290779114																						193.88816595077515	197.5790708065033	21																																						OA03	no	2024-08-26_09h24.51.760	EXNAT_3_training	2024.1.0	2024-08-26 09h39.27.655903 +0200	
Stimuli_and_Resources/Ishihara_Colour_Vision_Test/ishihara_test4_78.png	78	0	3	3	3					198.63148880004883																						198.58234882354736	202.63892197608948	78																																						OA03	no	2024-08-26_09h24.51.760	EXNAT_3_training	2024.1.0	2024-08-26 09h39.27.655903 +0200	
Stimuli_and_Resources/Ishihara_Colour_Vision_Test/ishihara_test6_15.png	15	0	4	4	5					203.691339969635																						203.6422028541565	206.79691982269287	15																																						OA03	no	2024-08-26_09h24.51.760	EXNAT_3_training	2024.1.0	2024-08-26 09h39.27.655903 +0200	
Stimuli_and_Resources/Ishihara_Colour_Vision_Test/ishihara_test1_70.png	70	0	5	5	0					207.84814381599426																						207.79855585098267	212.69359588623047	70																																						OA03	no	2024-08-26_09h24.51.760	EXNAT_3_training	2024.1.0	2024-08-26 09h39.27.655903 +0200	
						0	0	0	0	213.72652196884155																									213.71043992042542	213.7266149520874	213.72662591934204	#D292F3	None	None	None	1500	reading_bl_training_text	1	0	Reading_Baseline_training_click	None	Auf																								OA03	no	2024-08-26_09h24.51.760	EXNAT_3_training	2024.1.0	2024-08-26 09h39.27.655903 +0200	
						0	0	0	0																													#D292F3	None	None	None	1500	reading_bl_training_text	2	0	Reading_Baseline_training_click	None	dem																								OA03	no	2024-08-26_09h24.51.760	EXNAT_3_training	2024.1.0	2024-08-26 09h39.27.655903 +0200	
						0	0	0	0																													#2AB7EF	None	None	None	1500	reading_bl_training_text	3	0	Reading_Baseline_training_click	None	großen																								OA03	no	2024-08-26_09h24.51.760	EXNAT_3_training	2024.1.0	2024-08-26 09h39.27.655903 +0200	
						0	0	0	0																													#F989A2	None	None	None	1500	reading_bl_training_text	4	0	Reading_Baseline_training_click	None	"Passagierdampfer,"																								OA03	no	2024-08-26_09h24.51.760	EXNAT_3_training	2024.1.0	2024-08-26 09h39.27.655903 +0200	
						0	0	0	0																													#88BA3F	None	None	None	1500	reading_bl_training_text	5	0	Reading_Baseline_training_click	None	der																								OA03	no	2024-08-26_09h24.51.760	EXNAT_3_training	2024.1.0	2024-08-26 09h39.27.655903 +0200	
						0	0	0	0																													#D292F3	None	None	None	1500	reading_bl_training_text	6	0	Reading_Baseline_training_click	None	um																								OA03	no	2024-08-26_09h24.51.760	EXNAT_3_training	2024.1.0	2024-08-26 09h39.27.655903 +0200	
						0	0	0	0																													#F989A2	None	None	None	1500	reading_bl_training_text	7	0	Reading_Baseline_training_click	None	Mitternacht																								OA03	no	2024-08-26_09h24.51.760	EXNAT_3_training	2024.1.0	2024-08-26 09h39.27.655903 +0200	
						0	0	0	0																													#F989A2	None	None	None	882.288932800293	reading_bl_training_text	8	0	Reading_Baseline_training_click	None	von																								OA03	no	2024-08-26_09h24.51.760	EXNAT_3_training	2024.1.0	2024-08-26 09h39.27.655903 +0200	
						0	0	0	0																													#88BA3F	None	None	None	698.8589763641357	reading_bl_training_text	9	0	Reading_Baseline_training_click	None	New																								OA03	no	2024-08-26_09h24.51.760	EXNAT_3_training	2024.1.0	2024-08-26 09h39.27.655903 +0200	
						0	0	0	0																													#2AB7EF	None	None	None	715.595006942749	reading_bl_training_text	10	0	Reading_Baseline_training_click	None	York																								OA03	no	2024-08-26_09h24.51.760	EXNAT_3_training	2024.1.0	2024-08-26 09h39.27.655903 +0200	
						0	0	0	0																													#D292F3	None	None	None	698.8401412963867	reading_bl_training_text	11	0	Reading_Baseline_training_click	None	nach																								OA03	no	2024-08-26_09h24.51.760	EXNAT_3_training	2024.1.0	2024-08-26 09h39.27.655903 +0200	
						0	0	0	0																													#2AB7EF	None	None	None	765.8250331878662	reading_bl_training_text	12	0	Reading_Baseline_training_click	None	Buenos																								OA03	no	2024-08-26_09h24.51.760	EXNAT_3_training	2024.1.0	2024-08-26 09h39.27.655903 +0200	
						0	0	0	0																													#F989A2	None	None	None	615.7369613647461	reading_bl_training_text	13	0	Reading_Baseline_training_click	None	Aires																								OA03	no	2024-08-26_09h24.51.760	EXNAT_3_training	2024.1.0	2024-08-26 09h39.27.655903 +0200	
						0	0	0	0																													#D292F3	None	None	None	831.7677974700928	reading_bl_training_text	14	0	Reading_Baseline_training_click	None	abgehen																								OA03	no	2024-08-26_09h24.51.760	EXNAT_3_training	2024.1.0	2024-08-26 09h39.27.655903 +0200	
						0	0	0	0																													#2AB7EF	None	None	None	798.9070415496826	reading_bl_training_text	15	0	Reading_Baseline_training_click	None	"sollte,"																								OA03	no	2024-08-26_09h24.51.760	EXNAT_3_training	2024.1.0	2024-08-26 09h39.27.655903 +0200	
						0	0	0	0																													#F989A2	None	None	None	848.8249778747559	reading_bl_training_text	16	0	Reading_Baseline_training_click	None	herrschte																								OA03	no	2024-08-26_09h24.51.760	EXNAT_3_training	2024.1.0	2024-08-26 09h39.27.655903 +0200	
						0	0	0	0																													#F989A2	None	None	None	899.3089199066162	reading_bl_training_text	17	0	Reading_Baseline_training_click	None	geschäftiges																								OA03	no	2024-08-26_09h24.51.760	EXNAT_3_training	2024.1.0	2024-08-26 09h39.27.655903 +0200	
						0	0	0	0																													#88BA3F	None	None	None	815.3970241546631	reading_bl_training_text	18	0	Reading_Baseline_training_click	None	Treiben.																								OA03	no	2024-08-26_09h24.51.760	EXNAT_3_training	2024.1.0	2024-08-26 09h39.27.655903 +0200	
						0	0	0	0																													#2AB7EF	None	None	None	831.7570686340332	reading_bl_training_text	19	0	Reading_Baseline_training_click	None	Einige																								OA03	no	2024-08-26_09h24.51.760	EXNAT_3_training	2024.1.0	2024-08-26 09h39.27.655903 +0200	
						0	0	0	0																													#D292F3	None	None	None	632.3490142822266	reading_bl_training_text	20	0	Reading_Baseline_training_click	None	Reporter																								OA03	no	2024-08-26_09h24.51.760	EXNAT_3_training	2024.1.0	2024-08-26 09h39.27.655903 +0200	
						0	0	0	0																													#2AB7EF	None	None	None	732.4891090393066	reading_bl_training_text	21	0	Reading_Baseline_training_click	None	interviewten																								OA03	no	2024-08-26_09h24.51.760	EXNAT_3_training	2024.1.0	2024-08-26 09h39.27.655903 +0200	
						0	0	0	0																													#88BA3F	None	None	None	580.3320407867432	reading_bl_training_text	22	0	Reading_Baseline_training_click	None	den																								OA03	no	2024-08-26_09h24.51.760	EXNAT_3_training	2024.1.0	2024-08-26 09h39.27.655903 +0200	
						0	0	0	0																													#88BA3F	None	None	None	665.2030944824219	reading_bl_training_text	23	0	Reading_Baseline_training_click	None	berühmten																								OA03	no	2024-08-26_09h24.51.760	EXNAT_3_training	2024.1.0	2024-08-26 09h39.27.655903 +0200	
						0	0	0	0																													#D292F3	None	None	None	950.2789974212646	reading_bl_training_text	24	0	Reading_Baseline_training_click	None	Weltschachmeister																								OA03	no	2024-08-26_09h24.51.760	EXNAT_3_training	2024.1.0	2024-08-26 09h39.27.655903 +0200	
						0	0	0	0																													#F989A2	None	None	None	765.9521102905273	reading_bl_training_text	25	0	Reading_Baseline_training_click	None	Mirko																								OA03	no	2024-08-26_09h24.51.760	EXNAT_3_training	2024.1.0	2024-08-26 09h39.27.655903 +0200	
						0	0	0	0																													#F989A2	None	None	None	1099.092960357666	reading_bl_training_text	26	0	Reading_Baseline_training_click	None	"Czentovic,"																								OA03	no	2024-08-26_09h24.51.760	EXNAT_3_training	2024.1.0	2024-08-26 09h39.27.655903 +0200	
						0	0	0	0																													#D292F3	None	None	None	932.6050281524658	reading_bl_training_text	27	0	Reading_Baseline_training_click	None	der																								OA03	no	2024-08-26_09h24.51.760	EXNAT_3_training	2024.1.0	2024-08-26 09h39.27.655903 +0200	
						0	0	0	0																													#F989A2	None	None	None	565.4439926147461	reading_bl_training_text	28	0	Reading_Baseline_training_click	None	nach																								OA03	no	2024-08-26_09h24.51.760	EXNAT_3_training	2024.1.0	2024-08-26 09h39.27.655903 +0200	
						0	0	0	0																													#2AB7EF	None	None	None	666.2089824676514	reading_bl_training_text	29	0	Reading_Baseline_training_click	None	Argentinien																								OA03	no	2024-08-26_09h24.51.760	EXNAT_3_training	2024.1.0	2024-08-26 09h39.27.655903 +0200	
						0	0	0	0																													#88BA3F	None	None	None	598.7770557403564	reading_bl_training_text	30	0	Reading_Baseline_training_click	None	reiste.																								OA03	no	2024-08-26_09h24.51.760	EXNAT_3_training	2024.1.0	2024-08-26 09h39.27.655903 +0200	
						0	0	0	0																																		reading_bl_training_text			Reading_Baseline_training_click			294.2031638622284	Q1	1	a	True	1	None																	OA03	no	2024-08-26_09h24.51.760	EXNAT_3_training	2024.1.0	2024-08-26 09h39.27.655903 +0200	
						0	0	0	0																																		reading_bl_training_text			Reading_Baseline_training_click			303.8648729324341	Q2	3	c	True	1	None																	OA03	no	2024-08-26_09h24.51.760	EXNAT_3_training	2024.1.0	2024-08-26 09h39.27.655903 +0200	
						0	0	0	0																																		reading_bl_training_text			Reading_Baseline_training_click			312.15139293670654	Q3	1	a	True	1	None																	OA03	no	2024-08-26_09h24.51.760	EXNAT_3_training	2024.1.0	2024-08-26 09h39.27.655903 +0200	
						0	0	0	0																																															320.9716329574585	320.9716589450836	321.01211285591125	321.01212787628174	321.0205428600311	321.0205547809601	321.0370547771454										OA03	no	2024-08-26_09h24.51.760	EXNAT_3_training	2024.1.0	2024-08-26 09h39.27.655903 +0200	
						1	0	1	0	321.05345582962036																									321.03740787506104	321.0535008907318	321.0535078048706	#88BA3F	None	None	None	896.8908786773682	text_04	1	1	Reading_Baseline_main_click	None	Manche																								OA03	no	2024-08-26_09h24.51.760	EXNAT_3_training	2024.1.0	2024-08-26 09h39.27.655903 +0200	
						1	0	1	0																													#88BA3F	None	None	None	732.1009635925293	text_04	2	1	Reading_Baseline_main_click	None	Orte																								OA03	no	2024-08-26_09h24.51.760	EXNAT_3_training	2024.1.0	2024-08-26 09h39.27.655903 +0200	
						1	0	1	0																													#F989A2	None	None	None	800.0240325927734	text_04	3	1	Reading_Baseline_main_click	None	sind																								OA03	no	2024-08-26_09h24.51.760	EXNAT_3_training	2024.1.0	2024-08-26 09h39.27.655903 +0200	
						1	0	1	0																													#D292F3	None	None	None	763.8330459594727	text_04	4	1	Reading_Baseline_main_click	None	nur																								OA03	no	2024-08-26_09h24.51.760	EXNAT_3_training	2024.1.0	2024-08-26 09h39.27.655903 +0200	
						1	0	1	0																													#2AB7EF	None	None	None	766.1528587341309	text_04	5	1	Reading_Baseline_main_click	None	aus																								OA03	no	2024-08-26_09h24.51.760	EXNAT_3_training	2024.1.0	2024-08-26 09h39.27.655903 +0200	
						1	0	1	0																													#2AB7EF	None	None	None	732.7291965484619	text_04	6	1	Reading_Baseline_main_click	None	der																								OA03	no	2024-08-26_09h24.51.760	EXNAT_3_training	2024.1.0	2024-08-26 09h39.27.655903 +0200	
						1	0	1	0																													#D292F3	None	None	None	733.3388328552246	text_04	7	1	Reading_Baseline_main_click	None	Luft																								OA03	no	2024-08-26_09h24.51.760	EXNAT_3_training	2024.1.0	2024-08-26 09h39.27.655903 +0200	
						1	0	1	0																													#F989A2	None	None	None	731.7829132080078	text_04	8	1	Reading_Baseline_main_click	None	wirklich																								OA03	no	2024-08-26_09h24.51.760	EXNAT_3_training	2024.1.0	2024-08-26 09h39.27.655903 +0200	
						1	0	1	0																													#88BA3F	None	None	None	765.434980392456	text_04	9	1	Reading_Baseline_main_click	None	zugänglich.																								OA03	no	2024-08-26_09h24.51.760	EXNAT_3_training	2024.1.0	2024-08-26 09h39.27.655903 +0200	
						1	0	1	0																													#2AB7EF	None	None	None	865.8201694488525	text_04	10	1	Reading_Baseline_main_click	None	Bertus																								OA03	no	2024-08-26_09h24.51.760	EXNAT_3_training	2024.1.0	2024-08-26 09h39.27.655903 +0200	
						1	0	1	0																													#D292F3	None	None	None	781.3520431518555	text_04	11	1	Reading_Baseline_main_click	None	Schoeman																								OA03	no	2024-08-26_09h24.51.760	EXNAT_3_training	2024.1.0	2024-08-26 09h39.27.655903 +0200	
						1	0	1	0																													#F989A2	None	None	None	682.6307773590088	text_04	12	1	Reading_Baseline_main_click	None	fliegt																								OA03	no	2024-08-26_09h24.51.760	EXNAT_3_training	2024.1.0	2024-08-26 09h39.27.655903 +0200	
						1	0	1	0																													#2AB7EF	None	None	None	682.6279163360596	text_04	13	1	Reading_Baseline_main_click	None	oft																								OA03	no	2024-08-26_09h24.51.760	EXNAT_3_training	2024.1.0	2024-08-26 09h39.27.655903 +0200	
						1	0	1	0																													#F989A2	None	None	None	682.2359561920166	text_04	14	1	Reading_Baseline_main_click	None	mit																								OA03	no	2024-08-26_09h24.51.760	EXNAT_3_training	2024.1.0	2024-08-26 09h39.27.655903 +0200	
						1	0	1	0																													#F989A2	None	None	None	799.8158931732178	text_04	15	1	Reading_Baseline_main_click	None	seinem																								OA03	no	2024-08-26_09h24.51.760	EXNAT_3_training	2024.1.0	2024-08-26 09h39.27.655903 +0200	
						1	0	1	0																													#2AB7EF	None	None	None	565.2079582214355	text_04	16	1	Reading_Baseline_main_click	None	Flugzeug																								OA03	no	2024-08-26_09h24.51.760	EXNAT_3_training	2024.1.0	2024-08-26 09h39.27.655903 +0200	
						1	0	1	0																													#D292F3	None	None	None	614.4599914550781	text_04	17	1	Reading_Baseline_main_click	None	über																								OA03	no	2024-08-26_09h24.51.760	EXNAT_3_training	2024.1.0	2024-08-26 09h39.27.655903 +0200	
						1	0	1	0																													#2AB7EF	None	None	None	582.8919410705566	text_04	18	1	Reading_Baseline_main_click	None	die																								OA03	no	2024-08-26_09h24.51.760	EXNAT_3_training	2024.1.0	2024-08-26 09h39.27.655903 +0200	
						1	0	1	0																													#88BA3F	None	None	None	831.6860198974609	text_04	19	1	Reading_Baseline_main_click	None	"unwirtliche,"																								OA03	no	2024-08-26_09h24.51.760	EXNAT_3_training	2024.1.0	2024-08-26 09h39.27.655903 +0200	
						1	0	1	0																													#D292F3	None	None	None	899.5680809020996	text_04	20	1	Reading_Baseline_main_click	None	aber																								OA03	no	2024-08-26_09h24.51.760	EXNAT_3_training	2024.1.0	2024-08-26 09h39.27.655903 +0200	
						1	0	1	0																													#88BA3F	None	None	None	665.3540134429932	text_04	21	1	Reading_Baseline_main_click	None	trotzdem																								OA03	no	2024-08-26_09h24.51.760	EXNAT_3_training	2024.1.0	2024-08-26 09h39.27.655903 +0200	
						1	0	1	0																													#88BA3F	None	None	None	782.3381423950195	text_04	22	1	Reading_Baseline_main_click	None	wunderschöne																								OA03	no	2024-08-26_09h24.51.760	EXNAT_3_training	2024.1.0	2024-08-26 09h39.27.655903 +0200	
						1	0	1	0																													#F989A2	None	None	None	798.2709407806396	text_04	23	1	Reading_Baseline_main_click	None	Küste																								OA03	no	2024-08-26_09h24.51.760	EXNAT_3_training	2024.1.0	2024-08-26 09h39.27.655903 +0200	
						1	0	1	0																													#88BA3F	None	None	None	848.8070964813232	text_04	24	1	Reading_Baseline_main_click	None	Namibias.																								OA03	no	2024-08-26_09h24.51.760	EXNAT_3_training	2024.1.0	2024-08-26 09h39.27.655903 +0200	
						1	0	1	0																													#D292F3	None	None	None	732.7079772949219	text_04	25	1	Reading_Baseline_main_click	None	Er																								OA03	no	2024-08-26_09h24.51.760	EXNAT_3_training	2024.1.0	2024-08-26 09h39.27.655903 +0200	
						1	0	1	0																													#2AB7EF	None	None	None	698.7121105194092	text_04	26	1	Reading_Baseline_main_click	None	zeigt																								OA03	no	2024-08-26_09h24.51.760	EXNAT_3_training	2024.1.0	2024-08-26 09h39.27.655903 +0200	
						1	0	1	0																													#D292F3	None	None	None	748.8608360290527	text_04	27	1	Reading_Baseline_main_click	None	Touristen																								OA03	no	2024-08-26_09h24.51.760	EXNAT_3_training	2024.1.0	2024-08-26 09h39.27.655903 +0200	
						1	0	1	0																													#F989A2	None	None	None	682.0950508117676	text_04	28	1	Reading_Baseline_main_click	None	die																								OA03	no	2024-08-26_09h24.51.760	EXNAT_3_training	2024.1.0	2024-08-26 09h39.27.655903 +0200	
						1	0	1	0																													#2AB7EF	None	None	None	782.433032989502	text_04	29	1	Reading_Baseline_main_click	None	beeindruckenden																								OA03	no	2024-08-26_09h24.51.760	EXNAT_3_training	2024.1.0	2024-08-26 09h39.27.655903 +0200	
						1	0	1	0																													#88BA3F	None	None	None	748.4338283538818	text_04	30	1	Reading_Baseline_main_click	None	Schiffswracks																								OA03	no	2024-08-26_09h24.51.760	EXNAT_3_training	2024.1.0	2024-08-26 09h39.27.655903 +0200	
						1	0	1	0																													#D292F3	None	None	None	799.2050647735596	text_04	31	1	Reading_Baseline_main_click	None	und																								OA03	no	2024-08-26_09h24.51.760	EXNAT_3_training	2024.1.0	2024-08-26 09h39.27.655903 +0200	
						1	0	1	0																													#F989A2	None	None	None	732.7098846435547	text_04	32	1	Reading_Baseline_main_click	None	die																								OA03	no	2024-08-26_09h24.51.760	EXNAT_3_training	2024.1.0	2024-08-26 09h39.27.655903 +0200	
						1	0	1	0																													#2AB7EF	None	None	None	799.659013748169	text_04	33	1	Reading_Baseline_main_click	None	einzigartigen																								OA03	no	2024-08-26_09h24.51.760	EXNAT_3_training	2024.1.0	2024-08-26 09h39.27.655903 +0200	
						1	0	1	0																													#88BA3F	None	None	None	832.021951675415	text_04	34	1	Reading_Baseline_main_click	None	Landschaften																								OA03	no	2024-08-26_09h24.51.760	EXNAT_3_training	2024.1.0	2024-08-26 09h39.27.655903 +0200	
						1	0	1	0																													#88BA3F	None	None	None	731.6679954528809	text_04	35	1	Reading_Baseline_main_click	None	von																								OA03	no	2024-08-26_09h24.51.760	EXNAT_3_training	2024.1.0	2024-08-26 09h39.27.655903 +0200	
						1	0	1	0																													#F989A2	None	None	None	749.2539882659912	text_04	36	1	Reading_Baseline_main_click	None	oben.																								OA03	no	2024-08-26_09h24.51.760	EXNAT_3_training	2024.1.0	2024-08-26 09h39.27.655903 +0200	
						1	0	1	0																													#88BA3F	None	None	None	698.7490653991699	text_04	37	1	Reading_Baseline_main_click	None	Vom																								OA03	no	2024-08-26_09h24.51.760	EXNAT_3_training	2024.1.0	2024-08-26 09h39.27.655903 +0200	
						1	0	1	0																													#D292F3	None	None	None	798.853874206543	text_04	38	1	Reading_Baseline_main_click	None	Flugzeug																								OA03	no	2024-08-26_09h24.51.760	EXNAT_3_training	2024.1.0	2024-08-26 09h39.27.655903 +0200	
						1	0	1	0																													#2AB7EF	None	None	None	733.0560684204102	text_04	39	1	Reading_Baseline_main_click	None	aus																								OA03	no	2024-08-26_09h24.51.760	EXNAT_3_training	2024.1.0	2024-08-26 09h39.27.655903 +0200	
						1	0	1	0																													#2AB7EF	None	None	None	748.7077713012695	text_04	40	1	Reading_Baseline_main_click	None	sieht																								OA03	no	2024-08-26_09h24.51.760	EXNAT_3_training	2024.1.0	2024-08-26 09h39.27.655903 +0200	
						1	0	1	0																													#F989A2	None	None	None	766.3998603820801	text_04	41	1	Reading_Baseline_main_click	None	man																								OA03	no	2024-08-26_09h24.51.760	EXNAT_3_training	2024.1.0	2024-08-26 09h39.27.655903 +0200	
						1	0	1	0																													#88BA3F	None	None	None	665.4319763183594	text_04	42	1	Reading_Baseline_main_click	None	die																								OA03	no	2024-08-26_09h24.51.760	EXNAT_3_training	2024.1.0	2024-08-26 09h39.27.655903 +0200	
						1	0	1	0																													#88BA3F	None	None	None	599.0049839019775	text_04	43	1	Reading_Baseline_main_click	None	Küste																								OA03	no	2024-08-26_09h24.51.760	EXNAT_3_training	2024.1.0	2024-08-26 09h39.27.655903 +0200	
						1	0	1	0																													#2AB7EF	None	None	None	632.0579051971436	text_04	44	1	Reading_Baseline_main_click	None	des																								OA03	no	2024-08-26_09h24.51.760	EXNAT_3_training	2024.1.0	2024-08-26 09h39.27.655903 +0200	
						1	0	1	0																													#F989A2	None	None	None	665.4729843139648	text_04	45	1	Reading_Baseline_main_click	None	"Landes,"																								OA03	no	2024-08-26_09h24.51.760	EXNAT_3_training	2024.1.0	2024-08-26 09h39.27.655903 +0200	
						1	0	1	0																													#D292F3	None	None	None	816.2720203399658	text_04	46	1	Reading_Baseline_main_click	None	die																								OA03	no	2024-08-26_09h24.51.760	EXNAT_3_training	2024.1.0	2024-08-26 09h39.27.655903 +0200	
						1	0	1	0																													#F989A2	None	None	None	715.9318923950195	text_04	47	1	Reading_Baseline_main_click	None	sich																								OA03	no	2024-08-26_09h24.51.760	EXNAT_3_training	2024.1.0	2024-08-26 09h39.27.655903 +0200	
						1	0	1	0																													#D292F3	None	None	None	665.7009124755859	text_04	48	1	Reading_Baseline_main_click	None	von																								OA03	no	2024-08-26_09h24.51.760	EXNAT_3_training	2024.1.0	2024-08-26 09h39.27.655903 +0200	
						1	0	1	0																													#F989A2	None	None	None	849.4570255279541	text_04	49	1	Reading_Baseline_main_click	None	Südafrika																								OA03	no	2024-08-26_09h24.51.760	EXNAT_3_training	2024.1.0	2024-08-26 09h39.27.655903 +0200	
						1	0	1	0																													#D292F3	None	None	None	732.5990200042725	text_04	50	1	Reading_Baseline_main_click	None	bis																								OA03	no	2024-08-26_09h24.51.760	EXNAT_3_training	2024.1.0	2024-08-26 09h39.27.655903 +0200	
						1	0	1	0																													#2AB7EF	None	None	None	749.1278648376465	text_04	51	1	Reading_Baseline_main_click	None	nach																								OA03	no	2024-08-26_09h24.51.760	EXNAT_3_training	2024.1.0	2024-08-26 09h39.27.655903 +0200	
						1	0	1	0																													#88BA3F	None	None	None	765.4461860656738	text_04	52	1	Reading_Baseline_main_click	None	Angola																								OA03	no	2024-08-26_09h24.51.760	EXNAT_3_training	2024.1.0	2024-08-26 09h39.27.655903 +0200	
						1	0	1	0																													#F989A2	None	None	None	1016.3819789886475	text_04	53	1	Reading_Baseline_main_click	None	erstreckt.																								OA03	no	2024-08-26_09h24.51.760	EXNAT_3_training	2024.1.0	2024-08-26 09h39.27.655903 +0200	
						1	0	1	0																													#88BA3F	None	None	None	648.8988399505615	text_04	54	1	Reading_Baseline_main_click	None	Auch																								OA03	no	2024-08-26_09h24.51.760	EXNAT_3_training	2024.1.0	2024-08-26 09h39.27.655903 +0200	
						1	0	1	0																													#D292F3	None	None	None	982.7752113342285	text_04	55	1	Reading_Baseline_main_click	None	verschiedene																								OA03	no	2024-08-26_09h24.51.760	EXNAT_3_training	2024.1.0	2024-08-26 09h39.27.655903 +0200	
						1	0	1	0																													#2AB7EF	None	None	None	665.0841236114502	text_04	56	1	Reading_Baseline_main_click	None	"Tiere,"																								OA03	no	2024-08-26_09h24.51.760	EXNAT_3_training	2024.1.0	2024-08-26 09h39.27.655903 +0200	
						1	0	1	0																													#88BA3F	None	None	None	599.1621017456055	text_04	57	1	Reading_Baseline_main_click	None	wie																								OA03	no	2024-08-26_09h24.51.760	EXNAT_3_training	2024.1.0	2024-08-26 09h39.27.655903 +0200	
						1	0	1	0																													#F989A2	None	None	None	649.4131088256836	text_04	58	1	Reading_Baseline_main_click	None	die																								OA03	no	2024-08-26_09h24.51.760	EXNAT_3_training	2024.1.0	2024-08-26 09h39.27.655903 +0200	
						1	0	1	0																													#D292F3	None	None	None	698.9579200744629	text_04	59	1	Reading_Baseline_main_click	None	berühmten																								OA03	no	2024-08-26_09h24.51.760	EXNAT_3_training	2024.1.0	2024-08-26 09h39.27.655903 +0200	
						1	0	1	0																													#D292F3	None	None	None	832.6878547668457	text_04	60	1	Reading_Baseline_main_click	None	Flamingos																								OA03	no	2024-08-26_09h24.51.760	EXNAT_3_training	2024.1.0	2024-08-26 09h39.27.655903 +0200	
						1	0	1	0																													#88BA3F	None	None	None	815.5829906463623	text_04	61	1	Reading_Baseline_main_click	None	von																								OA03	no	2024-08-26_09h24.51.760	EXNAT_3_training	2024.1.0	2024-08-26 09h39.27.655903 +0200	
						1	0	1	0																													#F989A2	None	None	None	915.3730869293213	text_04	62	1	Reading_Baseline_main_click	None	Conception																								OA03	no	2024-08-26_09h24.51.760	EXNAT_3_training	2024.1.0	2024-08-26 09h39.27.655903 +0200	
						1	0	1	0																													#2AB7EF	None	None	None	849.5759963989258	text_04	63	1	Reading_Baseline_main_click	None	Bay																								OA03	no	2024-08-26_09h24.51.760	EXNAT_3_training	2024.1.0	2024-08-26 09h39.27.655903 +0200	
						1	0	1	0																													#F989A2	None	None	None	715.5299186706543	text_04	64	1	Reading_Baseline_main_click	None	und																								OA03	no	2024-08-26_09h24.51.760	EXNAT_3_training	2024.1.0	2024-08-26 09h39.27.655903 +0200	
						1	0	1	0																													#D292F3	None	None	None	715.7301902770996	text_04	65	1	Reading_Baseline_main_click	None	die																								OA03	no	2024-08-26_09h24.51.760	EXNAT_3_training	2024.1.0	2024-08-26 09h39.27.655903 +0200	
						1	0	1	0																													#D292F3	None	None	None	997.9000091552734	text_04	66	1	Reading_Baseline_main_click	None	Robbenkolonien																								OA03	no	2024-08-26_09h24.51.760	EXNAT_3_training	2024.1.0	2024-08-26 09h39.27.655903 +0200	
						1	0	1	0																													#2AB7EF	None	None	None	782.6499938964844	text_04	67	1	Reading_Baseline_main_click	None	von																								OA03	no	2024-08-26_09h24.51.760	EXNAT_3_training	2024.1.0	2024-08-26 09h39.27.655903 +0200	
						1	0	1	0																													#88BA3F	None	None	None	749.1931915283203	text_04	68	1	Reading_Baseline_main_click	None	Cape																								OA03	no	2024-08-26_09h24.51.760	EXNAT_3_training	2024.1.0	2024-08-26 09h39.27.655903 +0200	
						1	0	1	0																													#F989A2	None	None	None	717.4839973449707	text_04	69	1	Reading_Baseline_main_click	None	Cross																								OA03	no	2024-08-26_09h24.51.760	EXNAT_3_training	2024.1.0	2024-08-26 09h39.27.655903 +0200	
						1	0	1	0																													#F989A2	None	None	None	699.2428302764893	text_04	70	1	Reading_Baseline_main_click	None	kann																								OA03	no	2024-08-26_09h24.51.760	EXNAT_3_training	2024.1.0	2024-08-26 09h39.27.655903 +0200	
						1	0	1	0																													#D292F3	None	None	None	716.0389423370361	text_04	71	1	Reading_Baseline_main_click	None	man																								OA03	no	2024-08-26_09h24.51.760	EXNAT_3_training	2024.1.0	2024-08-26 09h39.27.655903 +0200	
						1	0	1	0																													#88BA3F	None	None	None	698.5359191894531	text_04	72	1	Reading_Baseline_main_click	None	aus																								OA03	no	2024-08-26_09h24.51.760	EXNAT_3_training	2024.1.0	2024-08-26 09h39.27.655903 +0200	
						1	0	1	0																													#88BA3F	None	None	None	648.7500667572021	text_04	73	1	Reading_Baseline_main_click	None	der																								OA03	no	2024-08-26_09h24.51.760	EXNAT_3_training	2024.1.0	2024-08-26 09h39.27.655903 +0200	
						1	0	1	0																													#2AB7EF	None	None	None	815.410852432251	text_04	74	1	Reading_Baseline_main_click	None	Vogelperspektive																								OA03	no	2024-08-26_09h24.51.760	EXNAT_3_training	2024.1.0	2024-08-26 09h39.27.655903 +0200	
						1	0	1	0																													#88BA3F	None	None	None	783.1990718841553	text_04	75	1	Reading_Baseline_main_click	None	sehen.																								OA03	no	2024-08-26_09h24.51.760	EXNAT_3_training	2024.1.0	2024-08-26 09h39.27.655903 +0200	
						1	0	1	0																													#D292F3	None	None	None	781.6979885101318	text_04	76	1	Reading_Baseline_main_click	None	Diese																								OA03	no	2024-08-26_09h24.51.760	EXNAT_3_training	2024.1.0	2024-08-26 09h39.27.655903 +0200	
						1	0	1	0																													#F989A2	None	None	None	766.4980888366699	text_04	77	1	Reading_Baseline_main_click	None	Safari																								OA03	no	2024-08-26_09h24.51.760	EXNAT_3_training	2024.1.0	2024-08-26 09h39.27.655903 +0200	
						1	0	1	0																													#F989A2	None	None	None	665.539026260376	text_04	78	1	Reading_Baseline_main_click	None	in																								OA03	no	2024-08-26_09h24.51.760	EXNAT_3_training	2024.1.0	2024-08-26 09h39.27.655903 +0200	
						1	0	1	0																													#D292F3	None	None	None	633.1009864807129	text_04	79	1	Reading_Baseline_main_click	None	der																								OA03	no	2024-08-26_09h24.51.760	EXNAT_3_training	2024.1.0	2024-08-26 09h39.27.655903 +0200	
						1	0	1	0																													#2AB7EF	None	None	None	715.562105178833	text_04	80	1	Reading_Baseline_main_click	None	Luft																								OA03	no	2024-08-26_09h24.51.760	EXNAT_3_training	2024.1.0	2024-08-26 09h39.27.655903 +0200	
						1	0	1	0																													#2AB7EF	None	None	None	732.0570945739746	text_04	81	1	Reading_Baseline_main_click	None	bietet																								OA03	no	2024-08-26_09h24.51.760	EXNAT_3_training	2024.1.0	2024-08-26 09h39.27.655903 +0200	
						1	0	1	0																													#88BA3F	None	None	None	715.6450748443604	text_04	82	1	Reading_Baseline_main_click	None	Touristen																								OA03	no	2024-08-26_09h24.51.760	EXNAT_3_training	2024.1.0	2024-08-26 09h39.27.655903 +0200	
						1	0	1	0																													#D292F3	None	None	None	649.0879058837891	text_04	83	1	Reading_Baseline_main_click	None	einen																								OA03	no	2024-08-26_09h24.51.760	EXNAT_3_training	2024.1.0	2024-08-26 09h39.27.655903 +0200	
						1	0	1	0																													#F989A2	None	None	None	598.8810062408447	text_04	84	1	Reading_Baseline_main_click	None	einzigartigen																								OA03	no	2024-08-26_09h24.51.760	EXNAT_3_training	2024.1.0	2024-08-26 09h39.27.655903 +0200	
						1	0	1	0																													#F989A2	None	None	None	666.3260459899902	text_04	85	1	Reading_Baseline_main_click	None	Blick																								OA03	no	2024-08-26_09h24.51.760	EXNAT_3_training	2024.1.0	2024-08-26 09h39.27.655903 +0200	
						1	0	1	0																													#2AB7EF	None	None	None	582.5068950653076	text_04	86	1	Reading_Baseline_main_click	None	auf																								OA03	no	2024-08-26_09h24.51.760	EXNAT_3_training	2024.1.0	2024-08-26 09h39.27.655903 +0200	
						1	0	1	0																													#88BA3F	None	None	None	765.7110691070557	text_04	87	1	Reading_Baseline_main_click	None	Namibias																								OA03	no	2024-08-26_09h24.51.760	EXNAT_3_training	2024.1.0	2024-08-26 09h39.27.655903 +0200	
						1	0	1	0																													#2AB7EF	None	None	None	866.3439750671387	text_04	88	1	Reading_Baseline_main_click	None	raue																								OA03	no	2024-08-26_09h24.51.760	EXNAT_3_training	2024.1.0	2024-08-26 09h39.27.655903 +0200	
						1	0	1	0																													#2AB7EF	None	None	None	663.7439727783203	text_04	89	1	Reading_Baseline_main_click	None	und																								OA03	no	2024-08-26_09h24.51.760	EXNAT_3_training	2024.1.0	2024-08-26 09h39.27.655903 +0200	
						1	0	1	0																													#F989A2	None	None	None	748.8970756530762	text_04	90	1	Reading_Baseline_main_click	None	faszinierende																								OA03	no	2024-08-26_09h24.51.760	EXNAT_3_training	2024.1.0	2024-08-26 09h39.27.655903 +0200	
						1	0	1	0																													#D292F3	None	None	None	798.8259792327881	text_04	91	1	Reading_Baseline_main_click	None	Schönheit.																								OA03	no	2024-08-26_09h24.51.760	EXNAT_3_training	2024.1.0	2024-08-26 09h39.27.655903 +0200	
						1	0	1	0																																		text_04			Reading_Baseline_main_click			408.40103697776794	Q1	NA	NA	False	2	None																	OA03	no	2024-08-26_09h24.51.760	EXNAT_3_training	2024.1.0	2024-08-26 09h39.27.655903 +0200	
						1	0	1	0																																		text_04			Reading_Baseline_main_click			418.4436409473419	Q2	3	c	False	2	None																	OA03	no	2024-08-26_09h24.51.760	EXNAT_3_training	2024.1.0	2024-08-26 09h39.27.655903 +0200	
						1	0	1	0																																		text_04			Reading_Baseline_main_click			419.3578188419342	Q3	NA	NA	False	2	None																	OA03	no	2024-08-26_09h24.51.760	EXNAT_3_training	2024.1.0	2024-08-26 09h39.27.655903 +0200	
						1	0	1	0																																															429.3806037902832	429.3806128501892	429.4217119216919	429.4217269420624	429.4299478530884	429.4299578666687	429.44689989089966										OA03	no	2024-08-26_09h24.51.760	EXNAT_3_training	2024.1.0	2024-08-26 09h39.27.655903 +0200	
						2	0	2	0	429.46328592300415																									429.44722986221313			#F989A2	False	correct rejection	None	1103.5048961639404		1	2	0back_single_training	0																#D292F3									OA03	no	2024-08-26_09h24.51.760	EXNAT_3_training	2024.1.0	2024-08-26 09h39.27.655903 +0200	
						2	0	2	0																													#2AB7EF	False	correct rejection	None	1233.7820529937744		2	2	0back_single_training	0																#D292F3									OA03	no	2024-08-26_09h24.51.760	EXNAT_3_training	2024.1.0	2024-08-26 09h39.27.655903 +0200	
						2	0	2	0																													#88BA3F	False	correct rejection	None	921.4391708374023		3	2	0back_single_training	0																#D292F3									OA03	no	2024-08-26_09h24.51.760	EXNAT_3_training	2024.1.0	2024-08-26 09h39.27.655903 +0200	
						2	0	2	0																													#88BA3F	False	correct rejection	None	1500		4	2	0back_single_training	0																#D292F3									OA03	no	2024-08-26_09h24.51.760	EXNAT_3_training	2024.1.0	2024-08-26 09h39.27.655903 +0200	
						2	0	2	0																													#D292F3	True	miss	None	116.61601066589355		5	2	0back_single_training	0																#D292F3									OA03	no	2024-08-26_09h24.51.760	EXNAT_3_training	2024.1.0	2024-08-26 09h39.27.655903 +0200	
						2	0	2	0																													#F989A2	False	correct rejection	None	1500		6	2	0back_single_training	0																#D292F3									OA03	no	2024-08-26_09h24.51.760	EXNAT_3_training	2024.1.0	2024-08-26 09h39.27.655903 +0200	
						2	0	2	0																													#88BA3F	False	correct rejection	None	1500		7	2	0back_single_training	0																#D292F3									OA03	no	2024-08-26_09h24.51.760	EXNAT_3_training	2024.1.0	2024-08-26 09h39.27.655903 +0200	
						2	0	2	0																													#F989A2	False	correct rejection	None	16.381025314331055		8	2	0back_single_training	0																#D292F3									OA03	no	2024-08-26_09h24.51.760	EXNAT_3_training	2024.1.0	2024-08-26 09h39.27.655903 +0200	
						2	0	2	0																													#F989A2	False	false alarm	348.7231731414795	1033.4031581878662		9	2	0back_single_training	0																#D292F3									OA03	no	2024-08-26_09h24.51.760	EXNAT_3_training	2024.1.0	2024-08-26 09h39.27.655903 +0200	
						2	0	2	0																													#88BA3F	False	correct rejection	None	634.1891288757324		10	2	0back_single_training	0																#D292F3									OA03	no	2024-08-26_09h24.51.760	EXNAT_3_training	2024.1.0	2024-08-26 09h39.27.655903 +0200	
						2	0	2	0																													#2AB7EF	False	correct rejection	None	650.8769989013672		11	2	0back_single_training	0																#D292F3									OA03	no	2024-08-26_09h24.51.760	EXNAT_3_training	2024.1.0	2024-08-26 09h39.27.655903 +0200	
						2	0	2	0																													#F989A2	False	false alarm	517.2600746154785	1134.6211433410645		12	2	0back_single_training	0																#D292F3									OA03	no	2024-08-26_09h24.51.760	EXNAT_3_training	2024.1.0	2024-08-26 09h39.27.655903 +0200	
						2	0	2	0																													#88BA3F	False	correct rejection	None	717.1809673309326		13	2	0back_single_training	0																#D292F3									OA03	no	2024-08-26_09h24.51.760	EXNAT_3_training	2024.1.0	2024-08-26 09h39.27.655903 +0200	
						2	0	2	0																													#2AB7EF	False	correct rejection	None	650.8140563964844		14	2	0back_single_training	0																#D292F3									OA03	no	2024-08-26_09h24.51.760	EXNAT_3_training	2024.1.0	2024-08-26 09h39.27.655903 +0200	
						2	0	2	0																													#2AB7EF	False	correct rejection	None	615.9219741821289		15	2	0back_single_training	0																#D292F3									OA03	no	2024-08-26_09h24.51.760	EXNAT_3_training	2024.1.0	2024-08-26 09h39.27.655903 +0200	
						2	0	2	0																													#2AB7EF	False	correct rejection	None	567.4839019775391		16	2	0back_single_training	0																#D292F3									OA03	no	2024-08-26_09h24.51.760	EXNAT_3_training	2024.1.0	2024-08-26 09h39.27.655903 +0200	
						2	0	2	0																													#D292F3	True	hit	569.1750049591064	1153.6250114440918		17	2	0back_single_training	0																#D292F3									OA03	no	2024-08-26_09h24.51.760	EXNAT_3_training	2024.1.0	2024-08-26 09h39.27.655903 +0200	
						2	0	2	0																													#D292F3	True	hit	1084.5921039581299	1500		18	2	0back_single_training	0																#D292F3									OA03	no	2024-08-26_09h24.51.760	EXNAT_3_training	2024.1.0	2024-08-26 09h39.27.655903 +0200	
						2	0	2	0																													#D292F3	True	miss	None	15.855073928833008		19	2	0back_single_training	0																#D292F3									OA03	no	2024-08-26_09h24.51.760	EXNAT_3_training	2024.1.0	2024-08-26 09h39.27.655903 +0200	
						2	0	2	0																													#D292F3	True	hit	750.6101131439209	1218.1940078735352		20	2	0back_single_training	0																#D292F3									OA03	no	2024-08-26_09h24.51.760	EXNAT_3_training	2024.1.0	2024-08-26 09h39.27.655903 +0200	
						2	0	2	0																											481.1985228061676	481.1985328197479	#D292F3	False	false alarm	1264.9788856506348	1500	text_03	1	3	0back_dual_main_click	0	Orang-Utans															#F989A2									OA03	no	2024-08-26_09h24.51.760	EXNAT_3_training	2024.1.0	2024-08-26 09h39.27.655903 +0200	
						2	0	2	0																													#D292F3	False	correct rejection	None	197.51596450805664	text_03	2	3	0back_dual_main_click	0	bauen															#F989A2									OA03	no	2024-08-26_09h24.51.760	EXNAT_3_training	2024.1.0	2024-08-26 09h39.27.655903 +0200	
						2	0	2	0																													#2AB7EF	False	correct rejection	None	914.1559600830078	text_03	3	3	0back_dual_main_click	0	sich															#F989A2									OA03	no	2024-08-26_09h24.51.760	EXNAT_3_training	2024.1.0	2024-08-26 09h39.27.655903 +0200	
						2	0	2	0																													#88BA3F	False	correct rejection	None	663.2049083709717	text_03	4	3	0back_dual_main_click	0	jede															#F989A2									OA03	no	2024-08-26_09h24.51.760	EXNAT_3_training	2024.1.0	2024-08-26 09h39.27.655903 +0200	
						2	0	2	0																													#D292F3	False	false alarm	565.0820732116699	1082.746982574463	text_03	5	3	0back_dual_main_click	0	Nacht															#F989A2									OA03	no	2024-08-26_09h24.51.760	EXNAT_3_training	2024.1.0	2024-08-26 09h39.27.655903 +0200	
						2	0	2	0																													#F989A2	True	hit	1083.5590362548828	1500	text_03	6	3	0back_dual_main_click	0	gemütliche															#F989A2									OA03	no	2024-08-26_09h24.51.760	EXNAT_3_training	2024.1.0	2024-08-26 09h39.27.655903 +0200	
						2	0	2	0																													#2AB7EF	False	correct rejection	None	848.7660884857178	text_03	7	3	0back_dual_main_click	0	Schlafnester															#F989A2									OA03	no	2024-08-26_09h24.51.760	EXNAT_3_training	2024.1.0	2024-08-26 09h39.27.655903 +0200	
						2	0	2	0																													#F989A2	True	hit	614.8169040679932	1065.6769275665283	text_03	8	3	0back_dual_main_click	0	hoch															#F989A2									OA03	no	2024-08-26_09h24.51.760	EXNAT_3_training	2024.1.0	2024-08-26 09h39.27.655903 +0200	
						2	0	2	0																													#2AB7EF	False	correct rejection	None	916.8338775634766	text_03	9	3	0back_dual_main_click	0	in															#F989A2									OA03	no	2024-08-26_09h24.51.760	EXNAT_3_training	2024.1.0	2024-08-26 09h39.27.655903 +0200	
						2	0	2	0																													#D292F3	False	false alarm	482.1910858154297	1283.2350730895996	text_03	10	3	0back_dual_main_click	0	den															#F989A2									OA03	no	2024-08-26_09h24.51.760	EXNAT_3_training	2024.1.0	2024-08-26 09h39.27.655903 +0200	
						2	0	2	0																													#F989A2	True	hit	715.0580883026123	1249.9351501464844	text_03	11	3	0back_dual_main_click	0	Bäumen.															#F989A2									OA03	no	2024-08-26_09h24.51.760	EXNAT_3_training	2024.1.0	2024-08-26 09h39.27.655903 +0200	
						2	0	2	0																													#88BA3F	False	correct rejection	None	865.3819561004639	text_03	12	3	0back_dual_main_click	0	Diese															#F989A2									OA03	no	2024-08-26_09h24.51.760	EXNAT_3_training	2024.1.0	2024-08-26 09h39.27.655903 +0200	
						2	0	2	0																													#2AB7EF	False	correct rejection	None	649.6059894561768	text_03	13	3	0back_dual_main_click	0	Nester															#F989A2									OA03	no	2024-08-26_09h24.51.760	EXNAT_3_training	2024.1.0	2024-08-26 09h39.27.655903 +0200	
						2	0	2	0																													#D292F3	False	false alarm	665.2770042419434	1283.6380004882812	text_03	14	3	0back_dual_main_click	0	bestehen															#F989A2									OA03	no	2024-08-26_09h24.51.760	EXNAT_3_training	2024.1.0	2024-08-26 09h39.27.655903 +0200	
						2	0	2	0																													#F989A2	True	miss	None	1500	text_03	15	3	0back_dual_main_click	0	aus															#F989A2									OA03	no	2024-08-26_09h24.51.760	EXNAT_3_training	2024.1.0	2024-08-26 09h39.27.655903 +0200	
						2	0	2	0																													#F989A2	True	miss	None	1349.4019508361816	text_03	16	3	0back_dual_main_click	0	Ästen															#F989A2									OA03	no	2024-08-26_09h24.51.760	EXNAT_3_training	2024.1.0	2024-08-26 09h39.27.655903 +0200	
						2	0	2	0																													#88BA3F	False	correct rejection	None	1450.8719444274902	text_03	17	3	0back_dual_main_click	0	und															#F989A2									OA03	no	2024-08-26_09h24.51.760	EXNAT_3_training	2024.1.0	2024-08-26 09h39.27.655903 +0200	
						2	0	2	0																													#88BA3F	False	correct rejection	None	782.5899124145508	text_03	18	3	0back_dual_main_click	0	Blättern															#F989A2									OA03	no	2024-08-26_09h24.51.760	EXNAT_3_training	2024.1.0	2024-08-26 09h39.27.655903 +0200	
						2	0	2	0																													#88BA3F	False	correct rejection	None	632.6510906219482	text_03	19	3	0back_dual_main_click	0	und															#F989A2									OA03	no	2024-08-26_09h24.51.760	EXNAT_3_training	2024.1.0	2024-08-26 09h39.27.655903 +0200	
						2	0	2	0																													#88BA3F	False	correct rejection	None	632.3168277740479	text_03	20	3	0back_dual_main_click	0	bieten															#F989A2									OA03	no	2024-08-26_09h24.51.760	EXNAT_3_training	2024.1.0	2024-08-26 09h39.27.655903 +0200	
						2	0	2	0																													#F989A2	True	hit	766.010046005249	1333.7910175323486	text_03	21	3	0back_dual_main_click	0	den															#F989A2									OA03	no	2024-08-26_09h24.51.760	EXNAT_3_training	2024.1.0	2024-08-26 09h39.27.655903 +0200	
						2	0	2	0																													#D292F3	False	correct rejection	None	782.1459770202637	text_03	22	3	0back_dual_main_click	0	Affen															#F989A2									OA03	no	2024-08-26_09h24.51.760	EXNAT_3_training	2024.1.0	2024-08-26 09h39.27.655903 +0200	
						2	0	2	0																													#F989A2	True	hit	748.6300468444824	1216.1939144134521	text_03	23	3	0back_dual_main_click	0	Komfort															#F989A2									OA03	no	2024-08-26_09h24.51.760	EXNAT_3_training	2024.1.0	2024-08-26 09h39.27.655903 +0200	
						2	0	2	0																													#D292F3	False	correct rejection	None	732.1240901947021	text_03	24	3	0back_dual_main_click	0	und															#F989A2									OA03	no	2024-08-26_09h24.51.760	EXNAT_3_training	2024.1.0	2024-08-26 09h39.27.655903 +0200	
						2	0	2	0																													#88BA3F	False	correct rejection	None	664.931058883667	text_03	25	3	0back_dual_main_click	0	Schutz.															#F989A2									OA03	no	2024-08-26_09h24.51.760	EXNAT_3_training	2024.1.0	2024-08-26 09h39.27.655903 +0200	
						2	0	2	0																													#2AB7EF	False	correct rejection	None	698.371171951294	text_03	26	3	0back_dual_main_click	0	Forscher															#F989A2									OA03	no	2024-08-26_09h24.51.760	EXNAT_3_training	2024.1.0	2024-08-26 09h39.27.655903 +0200	
						2	0	2	0																													#F989A2	True	hit	715.8939838409424	1183.424949645996	text_03	27	3	0back_dual_main_click	0	haben															#F989A2									OA03	no	2024-08-26_09h24.51.760	EXNAT_3_training	2024.1.0	2024-08-26 09h39.27.655903 +0200	
						2	0	2	0																													#D292F3	False	correct rejection	None	698.2920169830322	text_03	28	3	0back_dual_main_click	0	"entdeckt,"															#F989A2									OA03	no	2024-08-26_09h24.51.760	EXNAT_3_training	2024.1.0	2024-08-26 09h39.27.655903 +0200	
						2	0	2	0																													#2AB7EF	False	correct rejection	None	649.2178440093994	text_03	29	3	0back_dual_main_click	0	dass															#F989A2									OA03	no	2024-08-26_09h24.51.760	EXNAT_3_training	2024.1.0	2024-08-26 09h39.27.655903 +0200	
						2	0	2	0																													#F989A2	True	hit	699.0020275115967	1216.6779041290283	text_03	30	3	0back_dual_main_click	0	Orang-Utans															#F989A2									OA03	no	2024-08-26_09h24.51.760	EXNAT_3_training	2024.1.0	2024-08-26 09h39.27.655903 +0200	
						2	0	2	0																													#88BA3F	False	correct rejection	None	648.8621234893799	text_03	31	3	0back_dual_main_click	0	sehr															#F989A2									OA03	no	2024-08-26_09h24.51.760	EXNAT_3_training	2024.1.0	2024-08-26 09h39.27.655903 +0200	
						2	0	2	0																													#F989A2	True	hit	632.0948600769043	1049.5929718017578	text_03	32	3	0back_dual_main_click	0	geschickt															#F989A2									OA03	no	2024-08-26_09h24.51.760	EXNAT_3_training	2024.1.0	2024-08-26 09h39.27.655903 +0200	
						2	0	2	0																													#F989A2	True	hit	731.6529750823975	1149.122953414917	text_03	33	3	0back_dual_main_click	0	vorgehen:															#F989A2									OA03	no	2024-08-26_09h24.51.760	EXNAT_3_training	2024.1.0	2024-08-26 09h39.27.655903 +0200	
						2	0	2	0																													#2AB7EF	False	correct rejection	None	615.8828735351562	text_03	34	3	0back_dual_main_click	0	Sie															#F989A2									OA03	no	2024-08-26_09h24.51.760	EXNAT_3_training	2024.1.0	2024-08-26 09h39.27.655903 +0200	
						2	0	2	0																													#D292F3	False	correct rejection	None	1030.937910079956	text_03	35	3	0back_dual_main_click	0	wählen															#F989A2									OA03	no	2024-08-26_09h24.51.760	EXNAT_3_training	2024.1.0	2024-08-26 09h39.27.655903 +0200	
						2	0	2	0																													#D292F3	False	correct rejection	None	749.3150234222412	text_03	36	3	0back_dual_main_click	0	stabile															#F989A2									OA03	no	2024-08-26_09h24.51.760	EXNAT_3_training	2024.1.0	2024-08-26 09h39.27.655903 +0200	
						2	0	2	0																													#D292F3	False	correct rejection	None	734.1859340667725	text_03	37	3	0back_dual_main_click	0	Äste															#F989A2									OA03	no	2024-08-26_09h24.51.760	EXNAT_3_training	2024.1.0	2024-08-26 09h39.27.655903 +0200	
						2	0	2	0																													#D292F3	False	correct rejection	None	598.3788967132568	text_03	38	3	0back_dual_main_click	0	aus															#F989A2									OA03	no	2024-08-26_09h24.51.760	EXNAT_3_training	2024.1.0	2024-08-26 09h39.27.655903 +0200	
						2	0	2	0																													#D292F3	False	correct rejection	None	615.8778667449951	text_03	39	3	0back_dual_main_click	0	und															#F989A2									OA03	no	2024-08-26_09h24.51.760	EXNAT_3_training	2024.1.0	2024-08-26 09h39.27.655903 +0200	
						2	0	2	0																													#88BA3F	False	correct rejection	None	632.1408748626709	text_03	40	3	0back_dual_main_click	0	biegen															#F989A2									OA03	no	2024-08-26_09h24.51.760	EXNAT_3_training	2024.1.0	2024-08-26 09h39.27.655903 +0200	
						2	0	2	0																													#88BA3F	False	correct rejection	None	648.5719680786133	text_03	41	3	0back_dual_main_click	0	"diese,"															#F989A2									OA03	no	2024-08-26_09h24.51.760	EXNAT_3_training	2024.1.0	2024-08-26 09h39.27.655903 +0200	
						2	0	2	0																													#F989A2	True	hit	615.6489849090576	1049.7949123382568	text_03	42	3	0back_dual_main_click	0	ohne															#F989A2									OA03	no	2024-08-26_09h24.51.760	EXNAT_3_training	2024.1.0	2024-08-26 09h39.27.655903 +0200	
						2	0	2	0																													#D292F3	False	correct rejection	None	665.9340858459473	text_03	43	3	0back_dual_main_click	0	sie															#F989A2									OA03	no	2024-08-26_09h24.51.760	EXNAT_3_training	2024.1.0	2024-08-26 09h39.27.655903 +0200	
						2	0	2	0																													#2AB7EF	False	correct rejection	None	548.64501953125	text_03	44	3	0back_dual_main_click	0	ganz															#F989A2									OA03	no	2024-08-26_09h24.51.760	EXNAT_3_training	2024.1.0	2024-08-26 09h39.27.655903 +0200	
						2	0	2	0																													#D292F3	False	correct rejection	None	665.7710075378418	text_03	45	3	0back_dual_main_click	0	zu															#F989A2									OA03	no	2024-08-26_09h24.51.760	EXNAT_3_training	2024.1.0	2024-08-26 09h39.27.655903 +0200	
						2	0	2	0																													#F989A2	True	hit	565.2661323547363	999.4311332702637	text_03	46	3	0back_dual_main_click	0	brechen.															#F989A2									OA03	no	2024-08-26_09h24.51.760	EXNAT_3_training	2024.1.0	2024-08-26 09h39.27.655903 +0200	
						2	0	2	0																													#2AB7EF	False	correct rejection	None	665.9660339355469	text_03	47	3	0back_dual_main_click	0	So															#F989A2									OA03	no	2024-08-26_09h24.51.760	EXNAT_3_training	2024.1.0	2024-08-26 09h39.27.655903 +0200	
						2	0	2	0																													#2AB7EF	False	correct rejection	None	799.3619441986084	text_03	48	3	0back_dual_main_click	0	entsteht															#F989A2									OA03	no	2024-08-26_09h24.51.760	EXNAT_3_training	2024.1.0	2024-08-26 09h39.27.655903 +0200	
						2	0	2	0																													#2AB7EF	False	correct rejection	None	565.5479431152344	text_03	49	3	0back_dual_main_click	0	eine															#F989A2									OA03	no	2024-08-26_09h24.51.760	EXNAT_3_training	2024.1.0	2024-08-26 09h39.27.655903 +0200	
						2	0	2	0																													#D292F3	False	correct rejection	None	1166.7509078979492	text_03	50	3	0back_dual_main_click	0	robuste															#F989A2									OA03	no	2024-08-26_09h24.51.760	EXNAT_3_training	2024.1.0	2024-08-26 09h39.27.655903 +0200	
						2	0	2	0																													#D292F3	False	correct rejection	None	1115.9048080444336	text_03	51	3	0back_dual_main_click	0	Grundstruktur.															#F989A2									OA03	no	2024-08-26_09h24.51.760	EXNAT_3_training	2024.1.0	2024-08-26 09h39.27.655903 +0200	
						2	0	2	0																													#2AB7EF	False	correct rejection	None	682.548999786377	text_03	52	3	0back_dual_main_click	0	Die															#F989A2									OA03	no	2024-08-26_09h24.51.760	EXNAT_3_training	2024.1.0	2024-08-26 09h39.27.655903 +0200	
						2	0	2	0																													#F989A2	True	hit	598.4179973602295	1049.293041229248	text_03	53	3	0back_dual_main_click	0	Polsterung															#F989A2									OA03	no	2024-08-26_09h24.51.760	EXNAT_3_training	2024.1.0	2024-08-26 09h39.27.655903 +0200	
						2	0	2	0																													#2AB7EF	False	correct rejection	None	1049.7279167175293	text_03	54	3	0back_dual_main_click	0	der															#F989A2									OA03	no	2024-08-26_09h24.51.760	EXNAT_3_training	2024.1.0	2024-08-26 09h39.27.655903 +0200	
						2	0	2	0																													#F989A2	True	hit	682.5258731842041	1100.0049114227295	text_03	55	3	0back_dual_main_click	0	Nester															#F989A2									OA03	no	2024-08-26_09h24.51.760	EXNAT_3_training	2024.1.0	2024-08-26 09h39.27.655903 +0200	
						2	0	2	0																													#88BA3F	False	correct rejection	None	1031.5139293670654	text_03	56	3	0back_dual_main_click	0	besteht															#F989A2									OA03	no	2024-08-26_09h24.51.760	EXNAT_3_training	2024.1.0	2024-08-26 09h39.27.655903 +0200	
						2	0	2	0																													#2AB7EF	False	correct rejection	None	549.0729808807373	text_03	57	3	0back_dual_main_click	0	aus															#F989A2									OA03	no	2024-08-26_09h24.51.760	EXNAT_3_training	2024.1.0	2024-08-26 09h39.27.655903 +0200	
						2	0	2	0																													#D292F3	False	correct rejection	None	1135.0610256195068	text_03	58	3	0back_dual_main_click	0	dünneren															#F989A2									OA03	no	2024-08-26_09h24.51.760	EXNAT_3_training	2024.1.0	2024-08-26 09h39.27.655903 +0200	
						2	0	2	0																													#88BA3F	False	correct rejection	None	665.6708717346191	text_03	59	3	0back_dual_main_click	0	Ästen															#F989A2									OA03	no	2024-08-26_09h24.51.760	EXNAT_3_training	2024.1.0	2024-08-26 09h39.27.655903 +0200	
						2	0	2	0																													#88BA3F	False	correct rejection	None	649.245023727417	text_03	60	3	0back_dual_main_click	0	und															#F989A2									OA03	no	2024-08-26_09h24.51.760	EXNAT_3_training	2024.1.0	2024-08-26 09h39.27.655903 +0200	
						2	0	2	0																													#2AB7EF	False	correct rejection	None	665.8530235290527	text_03	61	3	0back_dual_main_click	0	macht															#F989A2									OA03	no	2024-08-26_09h24.51.760	EXNAT_3_training	2024.1.0	2024-08-26 09h39.27.655903 +0200	
						2	0	2	0																													#88BA3F	False	correct rejection	None	649.2748260498047	text_03	62	3	0back_dual_main_click	0	das															#F989A2									OA03	no	2024-08-26_09h24.51.760	EXNAT_3_training	2024.1.0	2024-08-26 09h39.27.655903 +0200	
						2	0	2	0																													#88BA3F	False	correct rejection	None	632.1728229522705	text_03	63	3	0back_dual_main_click	0	Nest															#F989A2									OA03	no	2024-08-26_09h24.51.760	EXNAT_3_training	2024.1.0	2024-08-26 09h39.27.655903 +0200	
						2	0	2	0																													#88BA3F	False	correct rejection	None	749.2208480834961	text_03	64	3	0back_dual_main_click	0	besonders															#F989A2									OA03	no	2024-08-26_09h24.51.760	EXNAT_3_training	2024.1.0	2024-08-26 09h39.27.655903 +0200	
						2	0	2	0																													#88BA3F	False	correct rejection	None	798.7508773803711	text_03	65	3	0back_dual_main_click	0	bequem.															#F989A2									OA03	no	2024-08-26_09h24.51.760	EXNAT_3_training	2024.1.0	2024-08-26 09h39.27.655903 +0200	
						2	0	2	0																													#88BA3F	False	correct rejection	None	732.5789928436279	text_03	66	3	0back_dual_main_click	0	Diese															#F989A2									OA03	no	2024-08-26_09h24.51.760	EXNAT_3_training	2024.1.0	2024-08-26 09h39.27.655903 +0200	
						2	0	2	0																													#88BA3F	False	correct rejection	None	799.069881439209	text_03	67	3	0back_dual_main_click	0	Bauweise															#F989A2									OA03	no	2024-08-26_09h24.51.760	EXNAT_3_training	2024.1.0	2024-08-26 09h39.27.655903 +0200	
						2	0	2	0																													#88BA3F	False	correct rejection	None	732.3729991912842	text_03	68	3	0back_dual_main_click	0	schützt															#F989A2									OA03	no	2024-08-26_09h24.51.760	EXNAT_3_training	2024.1.0	2024-08-26 09h39.27.655903 +0200	
						2	0	2	0																													#2AB7EF	False	correct rejection	None	732.7549457550049	text_03	69	3	0back_dual_main_click	0	die															#F989A2									OA03	no	2024-08-26_09h24.51.760	EXNAT_3_training	2024.1.0	2024-08-26 09h39.27.655903 +0200	
						2	0	2	0																													#2AB7EF	False	correct rejection	None	748.9750385284424	text_03	70	3	0back_dual_main_click	0	Orang-Utans															#F989A2									OA03	no	2024-08-26_09h24.51.760	EXNAT_3_training	2024.1.0	2024-08-26 09h39.27.655903 +0200	
						2	0	2	0																													#2AB7EF	False	correct rejection	None	799.3619441986084	text_03	71	3	0back_dual_main_click	0	nicht															#F989A2									OA03	no	2024-08-26_09h24.51.760	EXNAT_3_training	2024.1.0	2024-08-26 09h39.27.655903 +0200	
						2	0	2	0																													#2AB7EF	False	correct rejection	None	699.3551254272461	text_03	72	3	0back_dual_main_click	0	nur															#F989A2									OA03	no	2024-08-26_09h24.51.760	EXNAT_3_training	2024.1.0	2024-08-26 09h39.27.655903 +0200	
						2	0	2	0																													#2AB7EF	False	correct rejection	None	699.1550922393799	text_03	73	3	0back_dual_main_click	0	vor															#F989A2									OA03	no	2024-08-26_09h24.51.760	EXNAT_3_training	2024.1.0	2024-08-26 09h39.27.655903 +0200	
						2	0	2	0																													#D292F3	False	false alarm	632.5380802154541	1250.4041194915771	text_03	74	3	0back_dual_main_click	0	dem															#F989A2									OA03	no	2024-08-26_09h24.51.760	EXNAT_3_training	2024.1.0	2024-08-26 09h39.27.655903 +0200	
						2	0	2	0																													#88BA3F	False	correct rejection	None	798.6509799957275	text_03	75	3	0back_dual_main_click	0	"Herunterfallen,"															#F989A2									OA03	no	2024-08-26_09h24.51.760	EXNAT_3_training	2024.1.0	2024-08-26 09h39.27.655903 +0200	
						2	0	2	0																													#D292F3	False	false alarm	816.0700798034668	1417.2298908233643	text_03	76	3	0back_dual_main_click	0	sondern															#F989A2									OA03	no	2024-08-26_09h24.51.760	EXNAT_3_training	2024.1.0	2024-08-26 09h39.27.655903 +0200	
						2	0	2	0																													#2AB7EF	False	correct rejection	None	549.0601062774658	text_03	77	3	0back_dual_main_click	0	auch															#F989A2									OA03	no	2024-08-26_09h24.51.760	EXNAT_3_training	2024.1.0	2024-08-26 09h39.27.655903 +0200	
						2	0	2	0																													#2AB7EF	False	correct rejection	None	665.4119491577148	text_03	78	3	0back_dual_main_click	0	vor															#F989A2									OA03	no	2024-08-26_09h24.51.760	EXNAT_3_training	2024.1.0	2024-08-26 09h39.27.655903 +0200	
						2	0	2	0																													#D292F3	False	false alarm	715.6858444213867	1216.6759967803955	text_03	79	3	0back_dual_main_click	0	Feinden															#F989A2									OA03	no	2024-08-26_09h24.51.760	EXNAT_3_training	2024.1.0	2024-08-26 09h39.27.655903 +0200	
						2	0	2	0																													#2AB7EF	False	correct rejection	None	732.7108383178711	text_03	80	3	0back_dual_main_click	0	und															#F989A2									OA03	no	2024-08-26_09h24.51.760	EXNAT_3_training	2024.1.0	2024-08-26 09h39.27.655903 +0200	
						2	0	2	0																													#2AB7EF	False	correct rejection	None	598.7038612365723	text_03	81	3	0back_dual_main_click	0	Parasiten.															#F989A2									OA03	no	2024-08-26_09h24.51.760	EXNAT_3_training	2024.1.0	2024-08-26 09h39.27.655903 +0200	
						2	0	2	0																													#88BA3F	False	correct rejection	None	548.6688613891602	text_03	82	3	0back_dual_main_click	0	So															#F989A2									OA03	no	2024-08-26_09h24.51.760	EXNAT_3_training	2024.1.0	2024-08-26 09h39.27.655903 +0200	
						2	0	2	0																													#2AB7EF	False	correct rejection	None	699.160099029541	text_03	83	3	0back_dual_main_click	0	schlafen															#F989A2									OA03	no	2024-08-26_09h24.51.760	EXNAT_3_training	2024.1.0	2024-08-26 09h39.27.655903 +0200	
						2	0	2	0																													#88BA3F	False	correct rejection	None	682.4350357055664	text_03	84	3	0back_dual_main_click	0	die															#F989A2									OA03	no	2024-08-26_09h24.51.760	EXNAT_3_training	2024.1.0	2024-08-26 09h39.27.655903 +0200	
						2	0	2	0																													#D292F3	False	false alarm	565.1731491088867	999.3541240692139	text_03	85	3	0back_dual_main_click	0	Primaten															#F989A2									OA03	no	2024-08-26_09h24.51.760	EXNAT_3_training	2024.1.0	2024-08-26 09h39.27.655903 +0200	
						2	0	2	0																													#D292F3	False	false alarm	765.4011249542236	1132.7810287475586	text_03	86	3	0back_dual_main_click	0	sicher															#F989A2									OA03	no	2024-08-26_09h24.51.760	EXNAT_3_training	2024.1.0	2024-08-26 09h39.27.655903 +0200	
						2	0	2	0																													#88BA3F	False	correct rejection	None	515.6559944152832	text_03	87	3	0back_dual_main_click	0	und															#F989A2									OA03	no	2024-08-26_09h24.51.760	EXNAT_3_training	2024.1.0	2024-08-26 09h39.27.655903 +0200	
						2	0	2	0																													#D292F3	False	false alarm	731.9810390472412	1116.0578727722168	text_03	88	3	0back_dual_main_click	0	komfortabel															#F989A2									OA03	no	2024-08-26_09h24.51.760	EXNAT_3_training	2024.1.0	2024-08-26 09h39.27.655903 +0200	
						2	0	2	0																													#D292F3	False	false alarm	816.230058670044	1166.9130325317383	text_03	89	3	0back_dual_main_click	0	in															#F989A2									OA03	no	2024-08-26_09h24.51.760	EXNAT_3_training	2024.1.0	2024-08-26 09h39.27.655903 +0200	
						2	0	2	0																													#88BA3F	False	correct rejection	None	615.7338619232178	text_03	90	3	0back_dual_main_click	0	ihren															#F989A2									OA03	no	2024-08-26_09h24.51.760	EXNAT_3_training	2024.1.0	2024-08-26 09h39.27.655903 +0200	
						2	0	2	0																													#D292F3	False	false alarm	832.7469825744629	1183.4559440612793	text_03	91	3	0back_dual_main_click	0	Nestern.															#F989A2									OA03	no	2024-08-26_09h24.51.760	EXNAT_3_training	2024.1.0	2024-08-26 09h39.27.655903 +0200	
						2	0	2	0																																		text_03			0back_dual_main_click			589.2372658252716	Q1	1	a	True	4	0																	OA03	no	2024-08-26_09h24.51.760	EXNAT_3_training	2024.1.0	2024-08-26 09h39.27.655903 +0200	
						2	0	2	0																																		text_03			0back_dual_main_click			596.4204947948456	Q2	1	a	True	4	0																	OA03	no	2024-08-26_09h24.51.760	EXNAT_3_training	2024.1.0	2024-08-26 09h39.27.655903 +0200	
						2	0	2	0																																		text_03			0back_dual_main_click			601.9477019309998	Q3	2	b	True	4	0																	OA03	no	2024-08-26_09h24.51.760	EXNAT_3_training	2024.1.0	2024-08-26 09h39.27.655903 +0200	
						2	0	2	0																																															610.7011089324951	610.7011289596558	610.7407619953156	610.7407739162445	610.7496588230133	610.7496678829193	610.7667667865753										OA03	no	2024-08-26_09h24.51.760	EXNAT_3_training	2024.1.0	2024-08-26 09h39.27.655903 +0200	
						3	0	3	0	610.7829868793488																									610.7670919895172			#D292F3	False	correct rejection	None	1500		1	4	1back_single_training1	1																									OA03	no	2024-08-26_09h24.51.760	EXNAT_3_training	2024.1.0	2024-08-26 09h39.27.655903 +0200	
						3	0	3	0																													#2AB7EF	False	correct rejection	None	1500		2	4	1back_single_training1	1																									OA03	no	2024-08-26_09h24.51.760	EXNAT_3_training	2024.1.0	2024-08-26 09h39.27.655903 +0200	
						3	0	3	0																													#88BA3F	False	correct rejection	None	1500		3	4	1back_single_training1	1																									OA03	no	2024-08-26_09h24.51.760	EXNAT_3_training	2024.1.0	2024-08-26 09h39.27.655903 +0200	
						3	0	3	0																													#F989A2	False	correct rejection	None	1500		4	4	1back_single_training1	1																									OA03	no	2024-08-26_09h24.51.760	EXNAT_3_training	2024.1.0	2024-08-26 09h39.27.655903 +0200	
						3	0	3	0																													#D292F3	False	correct rejection	None	1500		5	4	1back_single_training1	1																									OA03	no	2024-08-26_09h24.51.760	EXNAT_3_training	2024.1.0	2024-08-26 09h39.27.655903 +0200	
						3	0	3	0																													#2AB7EF	False	correct rejection	None	1500		6	4	1back_single_training1	1																									OA03	no	2024-08-26_09h24.51.760	EXNAT_3_training	2024.1.0	2024-08-26 09h39.27.655903 +0200	
						3	0	3	0																													#2AB7EF	True	miss	None	1500		7	4	1back_single_training1	1																									OA03	no	2024-08-26_09h24.51.760	EXNAT_3_training	2024.1.0	2024-08-26 09h39.27.655903 +0200	
						3	0	3	0																													#2AB7EF	True	miss	None	1500		8	4	1back_single_training1	1																									OA03	no	2024-08-26_09h24.51.760	EXNAT_3_training	2024.1.0	2024-08-26 09h39.27.655903 +0200	
						3	0	3	0																													#88BA3F	False	correct rejection	None	1500		9	4	1back_single_training1	1																									OA03	no	2024-08-26_09h24.51.760	EXNAT_3_training	2024.1.0	2024-08-26 09h39.27.655903 +0200	
						3	0	3	0																													#D292F3	False	correct rejection	None	1500		10	4	1back_single_training1	1																									OA03	no	2024-08-26_09h24.51.760	EXNAT_3_training	2024.1.0	2024-08-26 09h39.27.655903 +0200	
						3	0	3	0																													#D292F3	True	hit	465.6250476837158	1500		11	4	1back_single_training1	1																									OA03	no	2024-08-26_09h24.51.760	EXNAT_3_training	2024.1.0	2024-08-26 09h39.27.655903 +0200	
						3	0	3	0																													#88BA3F	False	correct rejection	None	1500		12	4	1back_single_training1	1																									OA03	no	2024-08-26_09h24.51.760	EXNAT_3_training	2024.1.0	2024-08-26 09h39.27.655903 +0200	
						3	0	3	0																													#2AB7EF	False	correct rejection	None	1500		13	4	1back_single_training1	1																									OA03	no	2024-08-26_09h24.51.760	EXNAT_3_training	2024.1.0	2024-08-26 09h39.27.655903 +0200	
						3	0	3	0																													#2AB7EF	True	hit	451.0660171508789	1500		14	4	1back_single_training1	1																									OA03	no	2024-08-26_09h24.51.760	EXNAT_3_training	2024.1.0	2024-08-26 09h39.27.655903 +0200	
						3	0	3	0																													#88BA3F	False	correct rejection	None	1500		15	4	1back_single_training1	1																									OA03	no	2024-08-26_09h24.51.760	EXNAT_3_training	2024.1.0	2024-08-26 09h39.27.655903 +0200	
						3	0	3	0																													#88BA3F	True	hit	365.4210567474365	1500		16	4	1back_single_training1	1																									OA03	no	2024-08-26_09h24.51.760	EXNAT_3_training	2024.1.0	2024-08-26 09h39.27.655903 +0200	
						3	0	3	0																													#F989A2	False	correct rejection	None	1500		17	4	1back_single_training1	1																									OA03	no	2024-08-26_09h24.51.760	EXNAT_3_training	2024.1.0	2024-08-26 09h39.27.655903 +0200	
						3	0	3	0																													#D292F3	False	correct rejection	None	1500		18	4	1back_single_training1	1																									OA03	no	2024-08-26_09h24.51.760	EXNAT_3_training	2024.1.0	2024-08-26 09h39.27.655903 +0200	
						3	0	3	0																													#2AB7EF	False	correct rejection	None	1500		19	4	1back_single_training1	1																									OA03	no	2024-08-26_09h24.51.760	EXNAT_3_training	2024.1.0	2024-08-26 09h39.27.655903 +0200	
						3	0	3	0																													#F989A2	False	correct rejection	None	1500		20	4	1back_single_training1	1																									OA03	no	2024-08-26_09h24.51.760	EXNAT_3_training	2024.1.0	2024-08-26 09h39.27.655903 +0200	
						3	0	3	0																													#F989A2	False	correct rejection	None	1500		1	5	1back_single_training2	1																									OA03	no	2024-08-26_09h24.51.760	EXNAT_3_training	2024.1.0	2024-08-26 09h39.27.655903 +0200	
						3	0	3	0																													#D292F3	False	correct rejection	None	1500		2	5	1back_single_training2	1																									OA03	no	2024-08-26_09h24.51.760	EXNAT_3_training	2024.1.0	2024-08-26 09h39.27.655903 +0200	
						3	0	3	0																													#88BA3F	False	correct rejection	None	1500		3	5	1back_single_training2	1																									OA03	no	2024-08-26_09h24.51.760	EXNAT_3_training	2024.1.0	2024-08-26 09h39.27.655903 +0200	
						3	0	3	0																													#2AB7EF	False	correct rejection	None	1500		4	5	1back_single_training2	1																									OA03	no	2024-08-26_09h24.51.760	EXNAT_3_training	2024.1.0	2024-08-26 09h39.27.655903 +0200	
						3	0	3	0																													#F989A2	False	correct rejection	None	1500		5	5	1back_single_training2	1																									OA03	no	2024-08-26_09h24.51.760	EXNAT_3_training	2024.1.0	2024-08-26 09h39.27.655903 +0200	
						3	0	3	0																													#D292F3	False	correct rejection	None	1500		6	5	1back_single_training2	1																									OA03	no	2024-08-26_09h24.51.760	EXNAT_3_training	2024.1.0	2024-08-26 09h39.27.655903 +0200	
						3	0	3	0																													#2AB7EF	False	correct rejection	None	1500		7	5	1back_single_training2	1																									OA03	no	2024-08-26_09h24.51.760	EXNAT_3_training	2024.1.0	2024-08-26 09h39.27.655903 +0200	
						3	0	3	0																													#2AB7EF	True	hit	432.2531223297119	1500		8	5	1back_single_training2	1																									OA03	no	2024-08-26_09h24.51.760	EXNAT_3_training	2024.1.0	2024-08-26 09h39.27.655903 +0200	
						3	0	3	0																													#88BA3F	False	correct rejection	None	1500		9	5	1back_single_training2	1																									OA03	no	2024-08-26_09h24.51.760	EXNAT_3_training	2024.1.0	2024-08-26 09h39.27.655903 +0200	
						3	0	3	0																													#88BA3F	True	hit	433.8419437408447	1500		10	5	1back_single_training2	1																									OA03	no	2024-08-26_09h24.51.760	EXNAT_3_training	2024.1.0	2024-08-26 09h39.27.655903 +0200	
						3	0	3	0																													#D292F3	False	correct rejection	None	1500		11	5	1back_single_training2	1																									OA03	no	2024-08-26_09h24.51.760	EXNAT_3_training	2024.1.0	2024-08-26 09h39.27.655903 +0200	
						3	0	3	0																													#F989A2	False	correct rejection	None	1500		12	5	1back_single_training2	1																									OA03	no	2024-08-26_09h24.51.760	EXNAT_3_training	2024.1.0	2024-08-26 09h39.27.655903 +0200	
						3	0	3	0																													#2AB7EF	False	correct rejection	None	1500		13	5	1back_single_training2	1																									OA03	no	2024-08-26_09h24.51.760	EXNAT_3_training	2024.1.0	2024-08-26 09h39.27.655903 +0200	
						3	0	3	0																													#D292F3	False	correct rejection	None	1500		14	5	1back_single_training2	1																									OA03	no	2024-08-26_09h24.51.760	EXNAT_3_training	2024.1.0	2024-08-26 09h39.27.655903 +0200	
						3	0	3	0																													#D292F3	True	hit	451.0519504547119	1500		15	5	1back_single_training2	1																									OA03	no	2024-08-26_09h24.51.760	EXNAT_3_training	2024.1.0	2024-08-26 09h39.27.655903 +0200	
						3	0	3	0																													#F989A2	False	correct rejection	None	1500		16	5	1back_single_training2	1																									OA03	no	2024-08-26_09h24.51.760	EXNAT_3_training	2024.1.0	2024-08-26 09h39.27.655903 +0200	
						3	0	3	0																													#F989A2	True	hit	465.64197540283203	1500		17	5	1back_single_training2	1																									OA03	no	2024-08-26_09h24.51.760	EXNAT_3_training	2024.1.0	2024-08-26 09h39.27.655903 +0200	
						3	0	3	0																													#88BA3F	False	correct rejection	None	1500		18	5	1back_single_training2	1																									OA03	no	2024-08-26_09h24.51.760	EXNAT_3_training	2024.1.0	2024-08-26 09h39.27.655903 +0200	
						3	0	3	0																													#88BA3F	True	hit	400.482177734375	1500		19	5	1back_single_training2	1																									OA03	no	2024-08-26_09h24.51.760	EXNAT_3_training	2024.1.0	2024-08-26 09h39.27.655903 +0200	
						3	0	3	0																													#2AB7EF	False	correct rejection	None	1500		20	5	1back_single_training2	1																									OA03	no	2024-08-26_09h24.51.760	EXNAT_3_training	2024.1.0	2024-08-26 09h39.27.655903 +0200	
						3	0	3	0																													#D292F3	False	correct rejection	None	1500		1	6	1back_single_main	1																									OA03	no	2024-08-26_09h24.51.760	EXNAT_3_training	2024.1.0	2024-08-26 09h39.27.655903 +0200	
						3	0	3	0																													#F989A2	False	correct rejection	None	1500		2	6	1back_single_main	1																									OA03	no	2024-08-26_09h24.51.760	EXNAT_3_training	2024.1.0	2024-08-26 09h39.27.655903 +0200	
						3	0	3	0																													#2AB7EF	False	correct rejection	None	1500		3	6	1back_single_main	1																									OA03	no	2024-08-26_09h24.51.760	EXNAT_3_training	2024.1.0	2024-08-26 09h39.27.655903 +0200	
						3	0	3	0																													#2AB7EF	True	hit	483.9630126953125	1500		4	6	1back_single_main	1																									OA03	no	2024-08-26_09h24.51.760	EXNAT_3_training	2024.1.0	2024-08-26 09h39.27.655903 +0200	
						3	0	3	0																													#88BA3F	False	correct rejection	None	1500		5	6	1back_single_main	1																									OA03	no	2024-08-26_09h24.51.760	EXNAT_3_training	2024.1.0	2024-08-26 09h39.27.655903 +0200	
						3	0	3	0																													#F989A2	False	correct rejection	None	1500		6	6	1back_single_main	1																									OA03	no	2024-08-26_09h24.51.760	EXNAT_3_training	2024.1.0	2024-08-26 09h39.27.655903 +0200	
						3	0	3	0																													#D292F3	False	correct rejection	None	1500		7	6	1back_single_main	1																									OA03	no	2024-08-26_09h24.51.760	EXNAT_3_training	2024.1.0	2024-08-26 09h39.27.655903 +0200	
						3	0	3	0																													#88BA3F	False	correct rejection	None	1500		8	6	1back_single_main	1																									OA03	no	2024-08-26_09h24.51.760	EXNAT_3_training	2024.1.0	2024-08-26 09h39.27.655903 +0200	
						3	0	3	0																													#2AB7EF	False	correct rejection	None	1500		9	6	1back_single_main	1																									OA03	no	2024-08-26_09h24.51.760	EXNAT_3_training	2024.1.0	2024-08-26 09h39.27.655903 +0200	
						3	0	3	0																													#F989A2	False	correct rejection	None	1500		10	6	1back_single_main	1																									OA03	no	2024-08-26_09h24.51.760	EXNAT_3_training	2024.1.0	2024-08-26 09h39.27.655903 +0200	
						3	0	3	0																													#88BA3F	False	correct rejection	None	1500		11	6	1back_single_main	1																									OA03	no	2024-08-26_09h24.51.760	EXNAT_3_training	2024.1.0	2024-08-26 09h39.27.655903 +0200	
						3	0	3	0																													#D292F3	False	correct rejection	None	1500		12	6	1back_single_main	1																									OA03	no	2024-08-26_09h24.51.760	EXNAT_3_training	2024.1.0	2024-08-26 09h39.27.655903 +0200	
						3	0	3	0																													#2AB7EF	False	correct rejection	None	1500		13	6	1back_single_main	1																									OA03	no	2024-08-26_09h24.51.760	EXNAT_3_training	2024.1.0	2024-08-26 09h39.27.655903 +0200	
						3	0	3	0																													#88BA3F	False	correct rejection	None	1500		14	6	1back_single_main	1																									OA03	no	2024-08-26_09h24.51.760	EXNAT_3_training	2024.1.0	2024-08-26 09h39.27.655903 +0200	
						3	0	3	0																													#F989A2	False	correct rejection	None	1500		15	6	1back_single_main	1																									OA03	no	2024-08-26_09h24.51.760	EXNAT_3_training	2024.1.0	2024-08-26 09h39.27.655903 +0200	
						3	0	3	0																													#F989A2	True	hit	452.27599143981934	1500		16	6	1back_single_main	1																									OA03	no	2024-08-26_09h24.51.760	EXNAT_3_training	2024.1.0	2024-08-26 09h39.27.655903 +0200	
						3	0	3	0																													#88BA3F	False	correct rejection	None	1500		17	6	1back_single_main	1																									OA03	no	2024-08-26_09h24.51.760	EXNAT_3_training	2024.1.0	2024-08-26 09h39.27.655903 +0200	
						3	0	3	0																													#F989A2	False	correct rejection	None	1500		18	6	1back_single_main	1																									OA03	no	2024-08-26_09h24.51.760	EXNAT_3_training	2024.1.0	2024-08-26 09h39.27.655903 +0200	
						3	0	3	0																													#D292F3	False	correct rejection	None	1500		19	6	1back_single_main	1																									OA03	no	2024-08-26_09h24.51.760	EXNAT_3_training	2024.1.0	2024-08-26 09h39.27.655903 +0200	
						3	0	3	0																													#2AB7EF	False	correct rejection	None	1500		20	6	1back_single_main	1																									OA03	no	2024-08-26_09h24.51.760	EXNAT_3_training	2024.1.0	2024-08-26 09h39.27.655903 +0200	
						3	0	3	0																													#D292F3	False	correct rejection	None	1500		21	6	1back_single_main	1																									OA03	no	2024-08-26_09h24.51.760	EXNAT_3_training	2024.1.0	2024-08-26 09h39.27.655903 +0200	
						3	0	3	0																													#D292F3	True	hit	417.1929359436035	1500		22	6	1back_single_main	1																									OA03	no	2024-08-26_09h24.51.760	EXNAT_3_training	2024.1.0	2024-08-26 09h39.27.655903 +0200	
						3	0	3	0																													#2AB7EF	False	correct rejection	None	1500		23	6	1back_single_main	1																									OA03	no	2024-08-26_09h24.51.760	EXNAT_3_training	2024.1.0	2024-08-26 09h39.27.655903 +0200	
						3	0	3	0																													#88BA3F	False	correct rejection	None	1500		24	6	1back_single_main	1																									OA03	no	2024-08-26_09h24.51.760	EXNAT_3_training	2024.1.0	2024-08-26 09h39.27.655903 +0200	
						3	0	3	0																													#D292F3	False	correct rejection	None	1500		25	6	1back_single_main	1																									OA03	no	2024-08-26_09h24.51.760	EXNAT_3_training	2024.1.0	2024-08-26 09h39.27.655903 +0200	
						3	0	3	0																													#F989A2	False	correct rejection	None	1500		26	6	1back_single_main	1																									OA03	no	2024-08-26_09h24.51.760	EXNAT_3_training	2024.1.0	2024-08-26 09h39.27.655903 +0200	
						3	0	3	0																													#D292F3	False	correct rejection	None	1500		27	6	1back_single_main	1																									OA03	no	2024-08-26_09h24.51.760	EXNAT_3_training	2024.1.0	2024-08-26 09h39.27.655903 +0200	
						3	0	3	0																													#88BA3F	False	correct rejection	None	1500		28	6	1back_single_main	1																									OA03	no	2024-08-26_09h24.51.760	EXNAT_3_training	2024.1.0	2024-08-26 09h39.27.655903 +0200	
						3	0	3	0																													#2AB7EF	False	correct rejection	None	1500		29	6	1back_single_main	1																									OA03	no	2024-08-26_09h24.51.760	EXNAT_3_training	2024.1.0	2024-08-26 09h39.27.655903 +0200	
						3	0	3	0																													#F989A2	False	correct rejection	None	1500		30	6	1back_single_main	1																									OA03	no	2024-08-26_09h24.51.760	EXNAT_3_training	2024.1.0	2024-08-26 09h39.27.655903 +0200	
						3	0	3	0																													#88BA3F	False	correct rejection	None	1500		31	6	1back_single_main	1																									OA03	no	2024-08-26_09h24.51.760	EXNAT_3_training	2024.1.0	2024-08-26 09h39.27.655903 +0200	
						3	0	3	0																													#88BA3F	True	hit	484.00402069091797	1500		32	6	1back_single_main	1																									OA03	no	2024-08-26_09h24.51.760	EXNAT_3_training	2024.1.0	2024-08-26 09h39.27.655903 +0200	
						3	0	3	0																													#88BA3F	True	miss	None	1500		33	6	1back_single_main	1																									OA03	no	2024-08-26_09h24.51.760	EXNAT_3_training	2024.1.0	2024-08-26 09h39.27.655903 +0200	
						3	0	3	0																													#D292F3	False	correct rejection	None	1500		34	6	1back_single_main	1																									OA03	no	2024-08-26_09h24.51.760	EXNAT_3_training	2024.1.0	2024-08-26 09h39.27.655903 +0200	
						3	0	3	0																													#F989A2	False	correct rejection	None	1500		35	6	1back_single_main	1																									OA03	no	2024-08-26_09h24.51.760	EXNAT_3_training	2024.1.0	2024-08-26 09h39.27.655903 +0200	
						3	0	3	0																													#2AB7EF	False	correct rejection	None	1500		36	6	1back_single_main	1																									OA03	no	2024-08-26_09h24.51.760	EXNAT_3_training	2024.1.0	2024-08-26 09h39.27.655903 +0200	
						3	0	3	0																													#2AB7EF	True	hit	435.6100559234619	1500		37	6	1back_single_main	1																									OA03	no	2024-08-26_09h24.51.760	EXNAT_3_training	2024.1.0	2024-08-26 09h39.27.655903 +0200	
						3	0	3	0																													#F989A2	False	correct rejection	None	1500		38	6	1back_single_main	1																									OA03	no	2024-08-26_09h24.51.760	EXNAT_3_training	2024.1.0	2024-08-26 09h39.27.655903 +0200	
						3	0	3	0																													#88BA3F	False	correct rejection	None	1500		39	6	1back_single_main	1																									OA03	no	2024-08-26_09h24.51.760	EXNAT_3_training	2024.1.0	2024-08-26 09h39.27.655903 +0200	
						3	0	3	0																													#88BA3F	True	hit	467.2999382019043	1500		40	6	1back_single_main	1																									OA03	no	2024-08-26_09h24.51.760	EXNAT_3_training	2024.1.0	2024-08-26 09h39.27.655903 +0200	
						3	0	3	0																													#D292F3	False	correct rejection	None	1500		41	6	1back_single_main	1																									OA03	no	2024-08-26_09h24.51.760	EXNAT_3_training	2024.1.0	2024-08-26 09h39.27.655903 +0200	
						3	0	3	0																													#2AB7EF	False	correct rejection	None	1500		42	6	1back_single_main	1																									OA03	no	2024-08-26_09h24.51.760	EXNAT_3_training	2024.1.0	2024-08-26 09h39.27.655903 +0200	
						3	0	3	0																													#F989A2	False	correct rejection	None	1500		43	6	1back_single_main	1																									OA03	no	2024-08-26_09h24.51.760	EXNAT_3_training	2024.1.0	2024-08-26 09h39.27.655903 +0200	
						3	0	3	0																													#F989A2	True	hit	482.5470447540283	1500		44	6	1back_single_main	1																									OA03	no	2024-08-26_09h24.51.760	EXNAT_3_training	2024.1.0	2024-08-26 09h39.27.655903 +0200	
						3	0	3	0																													#D292F3	False	correct rejection	None	1500		45	6	1back_single_main	1																									OA03	no	2024-08-26_09h24.51.760	EXNAT_3_training	2024.1.0	2024-08-26 09h39.27.655903 +0200	
						3	0	3	0																													#88BA3F	False	correct rejection	None	1500		46	6	1back_single_main	1																									OA03	no	2024-08-26_09h24.51.760	EXNAT_3_training	2024.1.0	2024-08-26 09h39.27.655903 +0200	
						3	0	3	0																													#D292F3	False	correct rejection	None	1500		47	6	1back_single_main	1																									OA03	no	2024-08-26_09h24.51.760	EXNAT_3_training	2024.1.0	2024-08-26 09h39.27.655903 +0200	
						3	0	3	0																													#2AB7EF	False	correct rejection	None	1500		48	6	1back_single_main	1																									OA03	no	2024-08-26_09h24.51.760	EXNAT_3_training	2024.1.0	2024-08-26 09h39.27.655903 +0200	
						3	0	3	0																													#88BA3F	False	correct rejection	None	1500		49	6	1back_single_main	1																									OA03	no	2024-08-26_09h24.51.760	EXNAT_3_training	2024.1.0	2024-08-26 09h39.27.655903 +0200	
						3	0	3	0																													#D292F3	False	correct rejection	None	1500		50	6	1back_single_main	1																									OA03	no	2024-08-26_09h24.51.760	EXNAT_3_training	2024.1.0	2024-08-26 09h39.27.655903 +0200	
						3	0	3	0																													#2AB7EF	False	correct rejection	None	1500		51	6	1back_single_main	1																									OA03	no	2024-08-26_09h24.51.760	EXNAT_3_training	2024.1.0	2024-08-26 09h39.27.655903 +0200	
						3	0	3	0																													#D292F3	False	correct rejection	None	1500		52	6	1back_single_main	1																									OA03	no	2024-08-26_09h24.51.760	EXNAT_3_training	2024.1.0	2024-08-26 09h39.27.655903 +0200	
						3	0	3	0																													#D292F3	True	hit	467.3008918762207	1500		53	6	1back_single_main	1																									OA03	no	2024-08-26_09h24.51.760	EXNAT_3_training	2024.1.0	2024-08-26 09h39.27.655903 +0200	
						3	0	3	0																													#F989A2	False	correct rejection	None	1500		54	6	1back_single_main	1																									OA03	no	2024-08-26_09h24.51.760	EXNAT_3_training	2024.1.0	2024-08-26 09h39.27.655903 +0200	
						3	0	3	0																													#88BA3F	False	correct rejection	None	1500		55	6	1back_single_main	1																									OA03	no	2024-08-26_09h24.51.760	EXNAT_3_training	2024.1.0	2024-08-26 09h39.27.655903 +0200	
						3	0	3	0																													#88BA3F	True	hit	535.8099937438965	1500		56	6	1back_single_main	1																									OA03	no	2024-08-26_09h24.51.760	EXNAT_3_training	2024.1.0	2024-08-26 09h39.27.655903 +0200	
						3	0	3	0																													#F989A2	False	correct rejection	None	1500		57	6	1back_single_main	1																									OA03	no	2024-08-26_09h24.51.760	EXNAT_3_training	2024.1.0	2024-08-26 09h39.27.655903 +0200	
						3	0	3	0																													#2AB7EF	False	correct rejection	None	1500		58	6	1back_single_main	1																									OA03	no	2024-08-26_09h24.51.760	EXNAT_3_training	2024.1.0	2024-08-26 09h39.27.655903 +0200	
						3	0	3	0																													#F989A2	False	correct rejection	None	1500		59	6	1back_single_main	1																									OA03	no	2024-08-26_09h24.51.760	EXNAT_3_training	2024.1.0	2024-08-26 09h39.27.655903 +0200	
						3	0	3	0																													#2AB7EF	False	correct rejection	None	1500		60	6	1back_single_main	1																									OA03	no	2024-08-26_09h24.51.760	EXNAT_3_training	2024.1.0	2024-08-26 09h39.27.655903 +0200	
						3	0	3	0																											888.9095509052277	888.909560918808	#88BA3F	False	correct rejection	None	2000	text_02	1	7	1back_dual_main_click	1	In																								OA03	no	2024-08-26_09h24.51.760	EXNAT_3_training	2024.1.0	2024-08-26 09h39.27.655903 +0200	
						3	0	3	0																													#F989A2	False	correct rejection	None	2000	text_02	2	7	1back_dual_main_click	1	Tansania																								OA03	no	2024-08-26_09h24.51.760	EXNAT_3_training	2024.1.0	2024-08-26 09h39.27.655903 +0200	
						3	0	3	0																													#F989A2	True	hit	915.3008460998535	2000	text_02	3	7	1back_dual_main_click	1	haben																								OA03	no	2024-08-26_09h24.51.760	EXNAT_3_training	2024.1.0	2024-08-26 09h39.27.655903 +0200	
						3	0	3	0																													#D292F3	False	correct rejection	None	2000	text_02	4	7	1back_dual_main_click	1	Forscher																								OA03	no	2024-08-26_09h24.51.760	EXNAT_3_training	2024.1.0	2024-08-26 09h39.27.655903 +0200	
						3	0	3	0																													#2AB7EF	False	correct rejection	None	2000	text_02	5	7	1back_dual_main_click	1	Überreste																								OA03	no	2024-08-26_09h24.51.760	EXNAT_3_training	2024.1.0	2024-08-26 09h39.27.655903 +0200	
						3	0	3	0																													#88BA3F	False	correct rejection	None	2000	text_02	6	7	1back_dual_main_click	1	eines																								OA03	no	2024-08-26_09h24.51.760	EXNAT_3_training	2024.1.0	2024-08-26 09h39.27.655903 +0200	
						3	0	3	0																													#F989A2	False	correct rejection	None	2000	text_02	7	7	1back_dual_main_click	1	Urzeit-Krokodils																								OA03	no	2024-08-26_09h24.51.760	EXNAT_3_training	2024.1.0	2024-08-26 09h39.27.655903 +0200	
						3	0	3	0																													#2AB7EF	False	correct rejection	None	2000	text_02	8	7	1back_dual_main_click	1	entdeckt.																								OA03	no	2024-08-26_09h24.51.760	EXNAT_3_training	2024.1.0	2024-08-26 09h39.27.655903 +0200	
						3	0	3	0																													#D292F3	False	correct rejection	None	2000	text_02	9	7	1back_dual_main_click	1	Es																								OA03	no	2024-08-26_09h24.51.760	EXNAT_3_training	2024.1.0	2024-08-26 09h39.27.655903 +0200	
						3	0	3	0																													#F989A2	False	correct rejection	None	2000	text_02	10	7	1back_dual_main_click	1	zeigt																								OA03	no	2024-08-26_09h24.51.760	EXNAT_3_training	2024.1.0	2024-08-26 09h39.27.655903 +0200	
						3	0	3	0																													#88BA3F	False	correct rejection	None	2000	text_02	11	7	1back_dual_main_click	1	Ähnlichkeiten																								OA03	no	2024-08-26_09h24.51.760	EXNAT_3_training	2024.1.0	2024-08-26 09h39.27.655903 +0200	
						3	0	3	0																													#2AB7EF	False	correct rejection	None	2000	text_02	12	7	1back_dual_main_click	1	zu																								OA03	no	2024-08-26_09h24.51.760	EXNAT_3_training	2024.1.0	2024-08-26 09h39.27.655903 +0200	
						3	0	3	0																													#D292F3	False	correct rejection	None	2000	text_02	13	7	1back_dual_main_click	1	Säugetieren.																								OA03	no	2024-08-26_09h24.51.760	EXNAT_3_training	2024.1.0	2024-08-26 09h39.27.655903 +0200	
						3	0	3	0																													#2AB7EF	False	correct rejection	None	2000	text_02	14	7	1back_dual_main_click	1	Es																								OA03	no	2024-08-26_09h24.51.760	EXNAT_3_training	2024.1.0	2024-08-26 09h39.27.655903 +0200	
						3	0	3	0																													#F989A2	False	correct rejection	None	2000	text_02	15	7	1back_dual_main_click	1	war																								OA03	no	2024-08-26_09h24.51.760	EXNAT_3_training	2024.1.0	2024-08-26 09h39.27.655903 +0200	
						3	0	3	0																													#F989A2	True	hit	515.6750679016113	2000	text_02	16	7	1back_dual_main_click	1	so																								OA03	no	2024-08-26_09h24.51.760	EXNAT_3_training	2024.1.0	2024-08-26 09h39.27.655903 +0200	
						3	0	3	0																													#D292F3	False	correct rejection	None	2000	text_02	17	7	1back_dual_main_click	1	groß																								OA03	no	2024-08-26_09h24.51.760	EXNAT_3_training	2024.1.0	2024-08-26 09h39.27.655903 +0200	
						3	0	3	0																													#2AB7EF	False	correct rejection	None	2000	text_02	18	7	1back_dual_main_click	1	wie																								OA03	no	2024-08-26_09h24.51.760	EXNAT_3_training	2024.1.0	2024-08-26 09h39.27.655903 +0200	
						3	0	3	0																													#88BA3F	False	correct rejection	None	2000	text_02	19	7	1back_dual_main_click	1	eine																								OA03	no	2024-08-26_09h24.51.760	EXNAT_3_training	2024.1.0	2024-08-26 09h39.27.655903 +0200	
						3	0	3	0																													#F989A2	False	correct rejection	None	2000	text_02	20	7	1back_dual_main_click	1	Katze.																								OA03	no	2024-08-26_09h24.51.760	EXNAT_3_training	2024.1.0	2024-08-26 09h39.27.655903 +0200	
						3	0	3	0																													#88BA3F	False	correct rejection	None	2000	text_02	21	7	1back_dual_main_click	1	Das																								OA03	no	2024-08-26_09h24.51.760	EXNAT_3_training	2024.1.0	2024-08-26 09h39.27.655903 +0200	
						3	0	3	0																													#D292F3	False	correct rejection	None	2000	text_02	22	7	1back_dual_main_click	1	Tier																								OA03	no	2024-08-26_09h24.51.760	EXNAT_3_training	2024.1.0	2024-08-26 09h39.27.655903 +0200	
						3	0	3	0																													#88BA3F	False	correct rejection	None	2000	text_02	23	7	1back_dual_main_click	1	lebte																								OA03	no	2024-08-26_09h24.51.760	EXNAT_3_training	2024.1.0	2024-08-26 09h39.27.655903 +0200	
						3	0	3	0																													#2AB7EF	False	correct rejection	None	2000	text_02	24	7	1back_dual_main_click	1	vor																								OA03	no	2024-08-26_09h24.51.760	EXNAT_3_training	2024.1.0	2024-08-26 09h39.27.655903 +0200	
