DisplayImage	corrAns	ishihara_pics.thisRepN	ishihara_pics.thisTrialN	ishihara_pics.thisN	ishihara_pics.thisIndex	blocks.thisRepN	blocks.thisTrialN	blocks.thisN	blocks.thisIndex	thisRow.t	notes	Settings.started	Settings.stopped	demographics.started	demographics.stopped	demographic_form.index	demographic_form.itemText	demographic_form.type	demographic_form.font	demographic_form.markerColor	demographic_form.response	demographic_form.rt	education.started	education.stopped	edu_form.index	edu_form.itemText	edu_form.type	edu_form.font	edu_form.markerColor	edu_form.response	edu_form.rt	Ishihara.started	Ishihara.stopped	ishihara_number.text	no_text_blocks_self_paced.started	no_text_blocks_self_paced.stopped	text_blocks_self_paced.started	colour	target	nback_response	nback_RT	duration	text_nr	trial_nr	block_nr	block_name	block_kind	word	global_onset_time	question	button_pressed	chosen_ans	ans_correct	block_nr_exp	n-back_level	text_blocks_self_paced.stopped	text_blocks_paced.started	text_blocks_paced.stopped	no_text_blocks_paced.started	no_text_blocks_paced.stopped	pseudotext.started	pseudotext.stopped	curr_0back_target	RT_per_letter_baseline	RT_per_letter_0back	RT_per_letter_1bck	RT_per_letter_2bck	RT_per_rect_1back_single	RT_per_rect_2back_single	end.started	end.stopped	participant	testing_mode	date	expName	psychopyVersion	expStart	
												0.019613027572631836	0.020013093948364258																																																											YA01	no	2024-08-26_11h08.59.930	EXNAT_3_training	2024.1.0	2024-08-26 11h09.10.324995 +0200	
														0.02002692222595215	314.4285809993744	0.0	Willkommen zum Experiment!	heading	None	None																																																				YA01	no	2024-08-26_11h08.59.930	EXNAT_3_training	2024.1.0	2024-08-26 11h09.10.324995 +0200	
																0.0	Bitte beantworten Sie zunächst die folgenden Fragen:	description	None	None																																																				YA01	no	2024-08-26_11h08.59.930	EXNAT_3_training	2024.1.0	2024-08-26 11h09.10.324995 +0200	
																gender	Welches Geschlecht steht in Ihrem Ausweis?	radio	None	None	Männlich	283.32982206344604																																																		YA01	no	2024-08-26_11h08.59.930	EXNAT_3_training	2024.1.0	2024-08-26 11h09.10.324995 +0200	
																age	Wie alt sind Sie?	free text	None	None	28	None																																																		YA01	no	2024-08-26_11h08.59.930	EXNAT_3_training	2024.1.0	2024-08-26 11h09.10.324995 +0200	
																language	Ist Deutsch Ihre Muttersprache?	radio	None	None	Ja	292.4236738681793																																																		YA01	no	2024-08-26_11h08.59.930	EXNAT_3_training	2024.1.0	2024-08-26 11h09.10.324995 +0200	
																dyslexia	Haben Sie eine Leseschwäche?	radio	None	None	Nein	300.35472989082336																																																		YA01	no	2024-08-26_11h08.59.930	EXNAT_3_training	2024.1.0	2024-08-26 11h09.10.324995 +0200	
																vision_glasses	Tragen Sie eine Brille?	radio	None	None	Nein	17.11857795715332																																																		YA01	no	2024-08-26_11h08.59.930	EXNAT_3_training	2024.1.0	2024-08-26 11h09.10.324995 +0200	
																vision_lenses	Tragen Sie Kontaktlinsen?	radio	None	None	Nein	16.507917165756226																																																		YA01	no	2024-08-26_11h08.59.930	EXNAT_3_training	2024.1.0	2024-08-26 11h09.10.324995 +0200	
																handedness	Sind Sie rechtshändig?	radio	None	None	Ja	17.37739396095276																																																		YA01	no	2024-08-26_11h08.59.930	EXNAT_3_training	2024.1.0	2024-08-26 11h09.10.324995 +0200	
																																																																								YA01	no	2024-08-26_11h08.59.930	EXNAT_3_training	2024.1.0	2024-08-26 11h09.10.324995 +0200	
																							314.4287269115448	397.907772064209	0.0	Bitte beantworten Sie die folgenden Fragen zu Ihrer Ausbildung:	description	None	None																																											YA01	no	2024-08-26_11h08.59.930	EXNAT_3_training	2024.1.0	2024-08-26 11h09.10.324995 +0200	
																									education	Was ist Ihr höchster Bildungsabschluss?	radio	None	None	abgeschlossenes Studium	10.681092023849487																																									YA01	no	2024-08-26_11h08.59.930	EXNAT_3_training	2024.1.0	2024-08-26 11h09.10.324995 +0200	
																									edu_intro	Wie viele Jahre verbrachten Sie insgesamt mit:	description	None	None																																											YA01	no	2024-08-26_11h08.59.930	EXNAT_3_training	2024.1.0	2024-08-26 11h09.10.324995 +0200	
																									edu_school_years	Schule	free text	None	None	8	None																																									YA01	no	2024-08-26_11h08.59.930	EXNAT_3_training	2024.1.0	2024-08-26 11h09.10.324995 +0200	
																									edu_eveningschool_years	Abendschule	free text	None	None	0	None																																									YA01	no	2024-08-26_11h08.59.930	EXNAT_3_training	2024.1.0	2024-08-26 11h09.10.324995 +0200	
																									edu_training_years	Ausbildung	free text	None	None	0	None																																									YA01	no	2024-08-26_11h08.59.930	EXNAT_3_training	2024.1.0	2024-08-26 11h09.10.324995 +0200	
																									edu_training_GDR_years	Fachschule	free text	None	None	0	None																																									YA01	no	2024-08-26_11h08.59.930	EXNAT_3_training	2024.1.0	2024-08-26 11h09.10.324995 +0200	
																									edu_uni_years	Universität/Hochschule	free text	None	None	7	None																																									YA01	no	2024-08-26_11h08.59.930	EXNAT_3_training	2024.1.0	2024-08-26 11h09.10.324995 +0200	
																									edu_other_years	Sonstiges	free text	None	None	0	None																																									YA01	no	2024-08-26_11h08.59.930	EXNAT_3_training	2024.1.0	2024-08-26 11h09.10.324995 +0200	
																									edu_profession	Was ist Ihr derzeitiger/letzter Beruf?	free text	None	None	Lieferant/ Barkeeper	None																																									YA01	no	2024-08-26_11h08.59.930	EXNAT_3_training	2024.1.0	2024-08-26 11h09.10.324995 +0200	
																																																																								YA01	no	2024-08-26_11h08.59.930	EXNAT_3_training	2024.1.0	2024-08-26 11h09.10.324995 +0200	
																																																																								YA01	no	2024-08-26_11h08.59.930	EXNAT_3_training	2024.1.0	2024-08-26 11h09.10.324995 +0200	
Stimuli_and_Resources/Ishihara_Colour_Vision_Test/ishihara_test2_17.png	17	0	0	0	1					410.5638270378113																						410.5049579143524	413.62066411972046	17																																						YA01	no	2024-08-26_11h08.59.930	EXNAT_3_training	2024.1.0	2024-08-26 11h09.10.324995 +0200	
Stimuli_and_Resources/Ishihara_Colour_Vision_Test/ishihara_test1_70.png	70	0	1	1	0					414.67301511764526																						414.6233959197998	416.9604539871216	70																																						YA01	no	2024-08-26_11h08.59.930	EXNAT_3_training	2024.1.0	2024-08-26 11h09.10.324995 +0200	
Stimuli_and_Resources/Ishihara_Colour_Vision_Test/ishihara_test5_23.png	23	0	2	2	4					418.01285004615784																						417.96369910240173	420.01638889312744	23																																						YA01	no	2024-08-26_11h08.59.930	EXNAT_3_training	2024.1.0	2024-08-26 11h09.10.324995 +0200	
Stimuli_and_Resources/Ishihara_Colour_Vision_Test/ishihara_test4_78.png	78	0	3	3	3					421.06879591941833																						421.0196409225464	423.27447605133057	78																																						YA01	no	2024-08-26_11h08.59.930	EXNAT_3_training	2024.1.0	2024-08-26 11h09.10.324995 +0200	
Stimuli_and_Resources/Ishihara_Colour_Vision_Test/ishihara_test3_21.png	21	0	4	4	2					424.325138092041																						424.2759530544281	426.44559812545776	21																																						YA01	no	2024-08-26_11h08.59.930	EXNAT_3_training	2024.1.0	2024-08-26 11h09.10.324995 +0200	
Stimuli_and_Resources/Ishihara_Colour_Vision_Test/ishihara_test6_15.png	15	0	5	5	5					427.4981961250305																						427.4483211040497	429.6518130302429	15																																						YA01	no	2024-08-26_11h08.59.930	EXNAT_3_training	2024.1.0	2024-08-26 11h09.10.324995 +0200	
						0	0	0	0	430.67097902297974																									430.6549530029297	430.6710669994354	430.67107701301575	#F989A2	None	None	None	682.2359561920166	reading_bl_training_text	1	0	Reading_Baseline_training_click	None	Auf																								YA01	no	2024-08-26_11h08.59.930	EXNAT_3_training	2024.1.0	2024-08-26 11h09.10.324995 +0200	
						0	0	0	0																													#88BA3F	None	None	None	433.0899715423584	reading_bl_training_text	2	0	Reading_Baseline_training_click	None	dem																								YA01	no	2024-08-26_11h08.59.930	EXNAT_3_training	2024.1.0	2024-08-26 11h09.10.324995 +0200	
						0	0	0	0																													#D292F3	None	None	None	397.37987518310547	reading_bl_training_text	3	0	Reading_Baseline_training_click	None	großen																								YA01	no	2024-08-26_11h08.59.930	EXNAT_3_training	2024.1.0	2024-08-26 11h09.10.324995 +0200	
						0	0	0	0																													#F989A2	None	None	None	1331.0389518737793	reading_bl_training_text	4	0	Reading_Baseline_training_click	None	"Passagierdampfer,"																								YA01	no	2024-08-26_11h08.59.930	EXNAT_3_training	2024.1.0	2024-08-26 11h09.10.324995 +0200	
						0	0	0	0																													#2AB7EF	None	None	None	515.3789520263672	reading_bl_training_text	5	0	Reading_Baseline_training_click	None	der																								YA01	no	2024-08-26_11h08.59.930	EXNAT_3_training	2024.1.0	2024-08-26 11h09.10.324995 +0200	
						0	0	0	0																													#F989A2	None	None	None	433.6581230163574	reading_bl_training_text	6	0	Reading_Baseline_training_click	None	um																								YA01	no	2024-08-26_11h08.59.930	EXNAT_3_training	2024.1.0	2024-08-26 11h09.10.324995 +0200	
						0	0	0	0																													#88BA3F	None	None	None	531.257152557373	reading_bl_training_text	7	0	Reading_Baseline_training_click	None	Mitternacht																								YA01	no	2024-08-26_11h08.59.930	EXNAT_3_training	2024.1.0	2024-08-26 11h09.10.324995 +0200	
						0	0	0	0																													#2AB7EF	None	None	None	466.4590358734131	reading_bl_training_text	8	0	Reading_Baseline_training_click	None	von																								YA01	no	2024-08-26_11h08.59.930	EXNAT_3_training	2024.1.0	2024-08-26 11h09.10.324995 +0200	
						0	0	0	0																													#D292F3	None	None	None	429.9499988555908	reading_bl_training_text	9	0	Reading_Baseline_training_click	None	New																								YA01	no	2024-08-26_11h08.59.930	EXNAT_3_training	2024.1.0	2024-08-26 11h09.10.324995 +0200	
						0	0	0	0																													#88BA3F	None	None	None	414.79015350341797	reading_bl_training_text	10	0	Reading_Baseline_training_click	None	York																								YA01	no	2024-08-26_11h08.59.930	EXNAT_3_training	2024.1.0	2024-08-26 11h09.10.324995 +0200	
						0	0	0	0																													#D292F3	None	None	None	415.29107093811035	reading_bl_training_text	11	0	Reading_Baseline_training_click	None	nach																								YA01	no	2024-08-26_11h08.59.930	EXNAT_3_training	2024.1.0	2024-08-26 11h09.10.324995 +0200	
						0	0	0	0																													#D292F3	None	None	None	381.0701370239258	reading_bl_training_text	12	0	Reading_Baseline_training_click	None	Buenos																								YA01	no	2024-08-26_11h08.59.930	EXNAT_3_training	2024.1.0	2024-08-26 11h09.10.324995 +0200	
						0	0	0	0																													#88BA3F	None	None	None	530.432939529419	reading_bl_training_text	13	0	Reading_Baseline_training_click	None	Aires																								YA01	no	2024-08-26_11h08.59.930	EXNAT_3_training	2024.1.0	2024-08-26 11h09.10.324995 +0200	
						0	0	0	0																													#2AB7EF	None	None	None	314.3281936645508	reading_bl_training_text	14	0	Reading_Baseline_training_click	None	abgehen																								YA01	no	2024-08-26_11h08.59.930	EXNAT_3_training	2024.1.0	2024-08-26 11h09.10.324995 +0200	
						0	0	0	0																													#2AB7EF	None	None	None	497.8010654449463	reading_bl_training_text	15	0	Reading_Baseline_training_click	None	"sollte,"																								YA01	no	2024-08-26_11h08.59.930	EXNAT_3_training	2024.1.0	2024-08-26 11h09.10.324995 +0200	
						0	0	0	0																													#D292F3	None	None	None	514.9729251861572	reading_bl_training_text	16	0	Reading_Baseline_training_click	None	herrschte																								YA01	no	2024-08-26_11h08.59.930	EXNAT_3_training	2024.1.0	2024-08-26 11h09.10.324995 +0200	
						0	0	0	0																													#D292F3	None	None	None	682.6651096343994	reading_bl_training_text	17	0	Reading_Baseline_training_click	None	geschäftiges																								YA01	no	2024-08-26_11h08.59.930	EXNAT_3_training	2024.1.0	2024-08-26 11h09.10.324995 +0200	
						0	0	0	0																													#88BA3F	None	None	None	430.9420585632324	reading_bl_training_text	18	0	Reading_Baseline_training_click	None	Treiben.																								YA01	no	2024-08-26_11h08.59.930	EXNAT_3_training	2024.1.0	2024-08-26 11h09.10.324995 +0200	
						0	0	0	0																													#2AB7EF	None	None	None	1433.0439567565918	reading_bl_training_text	19	0	Reading_Baseline_training_click	None	Einige																								YA01	no	2024-08-26_11h08.59.930	EXNAT_3_training	2024.1.0	2024-08-26 11h09.10.324995 +0200	
						0	0	0	0																													#D292F3	None	None	None	582.0150375366211	reading_bl_training_text	20	0	Reading_Baseline_training_click	None	Reporter																								YA01	no	2024-08-26_11h08.59.930	EXNAT_3_training	2024.1.0	2024-08-26 11h09.10.324995 +0200	
						0	0	0	0																													#F989A2	None	None	None	531.1980247497559	reading_bl_training_text	21	0	Reading_Baseline_training_click	None	interviewten																								YA01	no	2024-08-26_11h08.59.930	EXNAT_3_training	2024.1.0	2024-08-26 11h09.10.324995 +0200	
						0	0	0	0																													#F989A2	None	None	None	598.8609790802002	reading_bl_training_text	22	0	Reading_Baseline_training_click	None	den																								YA01	no	2024-08-26_11h08.59.930	EXNAT_3_training	2024.1.0	2024-08-26 11h09.10.324995 +0200	
						0	0	0	0																													#F989A2	None	None	None	431.6070079803467	reading_bl_training_text	23	0	Reading_Baseline_training_click	None	berühmten																								YA01	no	2024-08-26_11h08.59.930	EXNAT_3_training	2024.1.0	2024-08-26 11h09.10.324995 +0200	
						0	0	0	0																													#2AB7EF	None	None	None	680.6468963623047	reading_bl_training_text	24	0	Reading_Baseline_training_click	None	Weltschachmeister																								YA01	no	2024-08-26_11h08.59.930	EXNAT_3_training	2024.1.0	2024-08-26 11h09.10.324995 +0200	
						0	0	0	0																													#F989A2	None	None	None	1049.616813659668	reading_bl_training_text	25	0	Reading_Baseline_training_click	None	Mirko																								YA01	no	2024-08-26_11h08.59.930	EXNAT_3_training	2024.1.0	2024-08-26 11h09.10.324995 +0200	
						0	0	0	0																													#D292F3	None	None	None	798.9521026611328	reading_bl_training_text	26	0	Reading_Baseline_training_click	None	"Czentovic,"																								YA01	no	2024-08-26_11h08.59.930	EXNAT_3_training	2024.1.0	2024-08-26 11h09.10.324995 +0200	
						0	0	0	0																													#F989A2	None	None	None	531.1641693115234	reading_bl_training_text	27	0	Reading_Baseline_training_click	None	der																								YA01	no	2024-08-26_11h08.59.930	EXNAT_3_training	2024.1.0	2024-08-26 11h09.10.324995 +0200	
						0	0	0	0																													#D292F3	None	None	None	481.98390007019043	reading_bl_training_text	28	0	Reading_Baseline_training_click	None	nach																								YA01	no	2024-08-26_11h08.59.930	EXNAT_3_training	2024.1.0	2024-08-26 11h09.10.324995 +0200	
						0	0	0	0																													#88BA3F	None	None	None	631.9308280944824	reading_bl_training_text	29	0	Reading_Baseline_training_click	None	Argentinien																								YA01	no	2024-08-26_11h08.59.930	EXNAT_3_training	2024.1.0	2024-08-26 11h09.10.324995 +0200	
						0	0	0	0																													#2AB7EF	None	None	None	448.1480121612549	reading_bl_training_text	30	0	Reading_Baseline_training_click	None	reiste.																								YA01	no	2024-08-26_11h08.59.930	EXNAT_3_training	2024.1.0	2024-08-26 11h09.10.324995 +0200	
						0	0	0	0																																		reading_bl_training_text			Reading_Baseline_training_click			468.7299690246582	Q1	2	b	False	1	None																	YA01	no	2024-08-26_11h08.59.930	EXNAT_3_training	2024.1.0	2024-08-26 11h09.10.324995 +0200	
						0	0	0	0																																		reading_bl_training_text			Reading_Baseline_training_click			469.330374956131	Q2	3	c	True	1	None																	YA01	no	2024-08-26_11h08.59.930	EXNAT_3_training	2024.1.0	2024-08-26 11h09.10.324995 +0200	
						0	0	0	0																																		reading_bl_training_text			Reading_Baseline_training_click			478.8485851287842	Q3	2	b	False	1	None																	YA01	no	2024-08-26_11h08.59.930	EXNAT_3_training	2024.1.0	2024-08-26 11h09.10.324995 +0200	
						0	0	0	0																																															485.74557304382324	485.7455930709839	485.784775018692	485.7847890853882	485.79392194747925	485.7939329147339	485.8110189437866										YA01	no	2024-08-26_11h08.59.930	EXNAT_3_training	2024.1.0	2024-08-26 11h09.10.324995 +0200	
						1	0	1	0	485.82725501060486																									485.81136894226074	485.827299118042	485.8273069858551	#F989A2	None	None	None	615.2219772338867	text_02	1	1	Reading_Baseline_main_click	None	In																								YA01	no	2024-08-26_11h08.59.930	EXNAT_3_training	2024.1.0	2024-08-26 11h09.10.324995 +0200	
						1	0	1	0																													#88BA3F	None	None	None	516.1950588226318	text_02	2	1	Reading_Baseline_main_click	None	Tansania																								YA01	no	2024-08-26_11h08.59.930	EXNAT_3_training	2024.1.0	2024-08-26 11h09.10.324995 +0200	
						1	0	1	0																													#2AB7EF	None	None	None	646.7671394348145	text_02	3	1	Reading_Baseline_main_click	None	haben																								YA01	no	2024-08-26_11h08.59.930	EXNAT_3_training	2024.1.0	2024-08-26 11h09.10.324995 +0200	
						1	0	1	0																													#F989A2	None	None	None	497.6620674133301	text_02	4	1	Reading_Baseline_main_click	None	Forscher																								YA01	no	2024-08-26_11h08.59.930	EXNAT_3_training	2024.1.0	2024-08-26 11h09.10.324995 +0200	
						1	0	1	0																													#D292F3	None	None	None	514.8959159851074	text_02	5	1	Reading_Baseline_main_click	None	Überreste																								YA01	no	2024-08-26_11h08.59.930	EXNAT_3_training	2024.1.0	2024-08-26 11h09.10.324995 +0200	
						1	0	1	0																													#D292F3	None	None	None	450.49595832824707	text_02	6	1	Reading_Baseline_main_click	None	eines																								YA01	no	2024-08-26_11h08.59.930	EXNAT_3_training	2024.1.0	2024-08-26 11h09.10.324995 +0200	
						1	0	1	0																													#88BA3F	None	None	None	847.6579189300537	text_02	7	1	Reading_Baseline_main_click	None	Urzeit-Krokodils																								YA01	no	2024-08-26_11h08.59.930	EXNAT_3_training	2024.1.0	2024-08-26 11h09.10.324995 +0200	
						1	0	1	0																													#D292F3	None	None	None	580.7361602783203	text_02	8	1	Reading_Baseline_main_click	None	entdeckt.																								YA01	no	2024-08-26_11h08.59.930	EXNAT_3_training	2024.1.0	2024-08-26 11h09.10.324995 +0200	
						1	0	1	0																													#88BA3F	None	None	None	548.7639904022217	text_02	9	1	Reading_Baseline_main_click	None	Es																								YA01	no	2024-08-26_11h08.59.930	EXNAT_3_training	2024.1.0	2024-08-26 11h09.10.324995 +0200	
						1	0	1	0																													#2AB7EF	None	None	None	431.2169551849365	text_02	10	1	Reading_Baseline_main_click	None	zeigt																								YA01	no	2024-08-26_11h08.59.930	EXNAT_3_training	2024.1.0	2024-08-26 11h09.10.324995 +0200	
						1	0	1	0																													#2AB7EF	None	None	None	732.5339317321777	text_02	11	1	Reading_Baseline_main_click	None	Ähnlichkeiten																								YA01	no	2024-08-26_11h08.59.930	EXNAT_3_training	2024.1.0	2024-08-26 11h09.10.324995 +0200	
						1	0	1	0																													#F989A2	None	None	None	431.3697814941406	text_02	12	1	Reading_Baseline_main_click	None	zu																								YA01	no	2024-08-26_11h08.59.930	EXNAT_3_training	2024.1.0	2024-08-26 11h09.10.324995 +0200	
						1	0	1	0																													#D292F3	None	None	None	548.1281280517578	text_02	13	1	Reading_Baseline_main_click	None	Säugetieren.																								YA01	no	2024-08-26_11h08.59.930	EXNAT_3_training	2024.1.0	2024-08-26 11h09.10.324995 +0200	
						1	0	1	0																													#88BA3F	None	None	None	482.2719097137451	text_02	14	1	Reading_Baseline_main_click	None	Es																								YA01	no	2024-08-26_11h08.59.930	EXNAT_3_training	2024.1.0	2024-08-26 11h09.10.324995 +0200	
						1	0	1	0																													#2AB7EF	None	None	None	431.96797370910645	text_02	15	1	Reading_Baseline_main_click	None	war																								YA01	no	2024-08-26_11h08.59.930	EXNAT_3_training	2024.1.0	2024-08-26 11h09.10.324995 +0200	
						1	0	1	0																													#2AB7EF	None	None	None	415.27605056762695	text_02	16	1	Reading_Baseline_main_click	None	so																								YA01	no	2024-08-26_11h08.59.930	EXNAT_3_training	2024.1.0	2024-08-26 11h09.10.324995 +0200	
						1	0	1	0																													#F989A2	None	None	None	447.7379322052002	text_02	17	1	Reading_Baseline_main_click	None	groß																								YA01	no	2024-08-26_11h08.59.930	EXNAT_3_training	2024.1.0	2024-08-26 11h09.10.324995 +0200	
						1	0	1	0																													#88BA3F	None	None	None	465.487003326416	text_02	18	1	Reading_Baseline_main_click	None	wie																								YA01	no	2024-08-26_11h08.59.930	EXNAT_3_training	2024.1.0	2024-08-26 11h09.10.324995 +0200	
						1	0	1	0																													#2AB7EF	None	None	None	381.9119930267334	text_02	19	1	Reading_Baseline_main_click	None	eine																								YA01	no	2024-08-26_11h08.59.930	EXNAT_3_training	2024.1.0	2024-08-26 11h09.10.324995 +0200	
						1	0	1	0																													#F989A2	None	None	None	415.3270721435547	text_02	20	1	Reading_Baseline_main_click	None	Katze.																								YA01	no	2024-08-26_11h08.59.930	EXNAT_3_training	2024.1.0	2024-08-26 11h09.10.324995 +0200	
						1	0	1	0																													#F989A2	None	None	None	465.5909538269043	text_02	21	1	Reading_Baseline_main_click	None	Das																								YA01	no	2024-08-26_11h08.59.930	EXNAT_3_training	2024.1.0	2024-08-26 11h09.10.324995 +0200	
						1	0	1	0																													#88BA3F	None	None	None	465.05188941955566	text_02	22	1	Reading_Baseline_main_click	None	Tier																								YA01	no	2024-08-26_11h08.59.930	EXNAT_3_training	2024.1.0	2024-08-26 11h09.10.324995 +0200	
						1	0	1	0																													#D292F3	None	None	None	482.2239875793457	text_02	23	1	Reading_Baseline_main_click	None	lebte																								YA01	no	2024-08-26_11h08.59.930	EXNAT_3_training	2024.1.0	2024-08-26 11h09.10.324995 +0200	
						1	0	1	0																													#D292F3	None	None	None	381.24704360961914	text_02	24	1	Reading_Baseline_main_click	None	vor																								YA01	no	2024-08-26_11h08.59.930	EXNAT_3_training	2024.1.0	2024-08-26 11h09.10.324995 +0200	
						1	0	1	0																													#88BA3F	None	None	None	432.41405487060547	text_02	25	1	Reading_Baseline_main_click	None	etwa																								YA01	no	2024-08-26_11h08.59.930	EXNAT_3_training	2024.1.0	2024-08-26 11h09.10.324995 +0200	
						1	0	1	0																													#F989A2	None	None	None	664.6599769592285	text_02	26	1	Reading_Baseline_main_click	None	105																								YA01	no	2024-08-26_11h08.59.930	EXNAT_3_training	2024.1.0	2024-08-26 11h09.10.324995 +0200	
						1	0	1	0																													#2AB7EF	None	None	None	482.04708099365234	text_02	27	1	Reading_Baseline_main_click	None	Millionen																								YA01	no	2024-08-26_11h08.59.930	EXNAT_3_training	2024.1.0	2024-08-26 11h09.10.324995 +0200	
						1	0	1	0																													#88BA3F	None	None	None	414.7810935974121	text_02	28	1	Reading_Baseline_main_click	None	Jahren																								YA01	no	2024-08-26_11h08.59.930	EXNAT_3_training	2024.1.0	2024-08-26 11h09.10.324995 +0200	
						1	0	1	0																													#D292F3	None	None	None	481.77599906921387	text_02	29	1	Reading_Baseline_main_click	None	und																								YA01	no	2024-08-26_11h08.59.930	EXNAT_3_training	2024.1.0	2024-08-26 11h09.10.324995 +0200	
						1	0	1	0																													#D292F3	None	None	None	414.78896141052246	text_02	30	1	Reading_Baseline_main_click	None	jagte																								YA01	no	2024-08-26_11h08.59.930	EXNAT_3_training	2024.1.0	2024-08-26 11h09.10.324995 +0200	
						1	0	1	0																													#F989A2	None	None	None	465.2869701385498	text_02	31	1	Reading_Baseline_main_click	None	an																								YA01	no	2024-08-26_11h08.59.930	EXNAT_3_training	2024.1.0	2024-08-26 11h09.10.324995 +0200	
						1	0	1	0																													#2AB7EF	None	None	None	381.54006004333496	text_02	32	1	Reading_Baseline_main_click	None	Land																								YA01	no	2024-08-26_11h08.59.930	EXNAT_3_training	2024.1.0	2024-08-26 11h09.10.324995 +0200	
						1	0	1	0																													#F989A2	None	None	None	448.84705543518066	text_02	33	1	Reading_Baseline_main_click	None	nach																								YA01	no	2024-08-26_11h08.59.930	EXNAT_3_training	2024.1.0	2024-08-26 11h09.10.324995 +0200	
						1	0	1	0																													#88BA3F	None	None	None	381.85691833496094	text_02	34	1	Reading_Baseline_main_click	None	Insekten																								YA01	no	2024-08-26_11h08.59.930	EXNAT_3_training	2024.1.0	2024-08-26 11h09.10.324995 +0200	
						1	0	1	0																													#2AB7EF	None	None	None	415.9841537475586	text_02	35	1	Reading_Baseline_main_click	None	und																								YA01	no	2024-08-26_11h08.59.930	EXNAT_3_training	2024.1.0	2024-08-26 11h09.10.324995 +0200	
						1	0	1	0																													#D292F3	None	None	None	432.0509433746338	text_02	36	1	Reading_Baseline_main_click	None	kleinen																								YA01	no	2024-08-26_11h08.59.930	EXNAT_3_training	2024.1.0	2024-08-26 11h09.10.324995 +0200	
						1	0	1	0																													#F989A2	None	None	None	398.59819412231445	text_02	37	1	Reading_Baseline_main_click	None	Tieren.																								YA01	no	2024-08-26_11h08.59.930	EXNAT_3_training	2024.1.0	2024-08-26 11h09.10.324995 +0200	
						1	0	1	0																													#F989A2	None	None	None	448.8990306854248	text_02	38	1	Reading_Baseline_main_click	None	Es																								YA01	no	2024-08-26_11h08.59.930	EXNAT_3_training	2024.1.0	2024-08-26 11h09.10.324995 +0200	
						1	0	1	0																													#88BA3F	None	None	None	464.80393409729004	text_02	39	1	Reading_Baseline_main_click	None	besaß																								YA01	no	2024-08-26_11h08.59.930	EXNAT_3_training	2024.1.0	2024-08-26 11h09.10.324995 +0200	
						1	0	1	0																													#2AB7EF	None	None	None	681.5540790557861	text_02	40	1	Reading_Baseline_main_click	None	ungewöhnliche																								YA01	no	2024-08-26_11h08.59.930	EXNAT_3_training	2024.1.0	2024-08-26 11h09.10.324995 +0200	
						1	0	1	0																													#D292F3	None	None	None	514.070987701416	text_02	41	1	Reading_Baseline_main_click	None	"Merkmale,"																								YA01	no	2024-08-26_11h08.59.930	EXNAT_3_training	2024.1.0	2024-08-26 11h09.10.324995 +0200	
						1	0	1	0																													#88BA3F	None	None	None	381.6649913787842	text_02	42	1	Reading_Baseline_main_click	None	wie																								YA01	no	2024-08-26_11h08.59.930	EXNAT_3_training	2024.1.0	2024-08-26 11h09.10.324995 +0200	
						1	0	1	0																													#F989A2	None	None	None	398.67520332336426	text_02	43	1	Reading_Baseline_main_click	None	weniger																								YA01	no	2024-08-26_11h08.59.930	EXNAT_3_training	2024.1.0	2024-08-26 11h09.10.324995 +0200	
						1	0	1	0																													#88BA3F	None	None	None	397.98688888549805	text_02	44	1	Reading_Baseline_main_click	None	Zähne																								YA01	no	2024-08-26_11h08.59.930	EXNAT_3_training	2024.1.0	2024-08-26 11h09.10.324995 +0200	
						1	0	1	0																													#2AB7EF	None	None	None	397.9940414428711	text_02	45	1	Reading_Baseline_main_click	None	und																								YA01	no	2024-08-26_11h08.59.930	EXNAT_3_training	2024.1.0	2024-08-26 11h09.10.324995 +0200	
						1	0	1	0																													#D292F3	None	None	None	398.58293533325195	text_02	46	1	Reading_Baseline_main_click	None	hatte																								YA01	no	2024-08-26_11h08.59.930	EXNAT_3_training	2024.1.0	2024-08-26 11h09.10.324995 +0200	
						1	0	1	0																													#2AB7EF	None	None	None	481.5499782562256	text_02	47	1	Reading_Baseline_main_click	None	Backenzähne																								YA01	no	2024-08-26_11h08.59.930	EXNAT_3_training	2024.1.0	2024-08-26 11h09.10.324995 +0200	
						1	0	1	0																													#D292F3	None	None	None	598.9930629730225	text_02	48	1	Reading_Baseline_main_click	None	zum																								YA01	no	2024-08-26_11h08.59.930	EXNAT_3_training	2024.1.0	2024-08-26 11h09.10.324995 +0200	
						1	0	1	0																													#F989A2	None	None	None	414.86096382141113	text_02	49	1	Reading_Baseline_main_click	None	Kauen																								YA01	no	2024-08-26_11h08.59.930	EXNAT_3_training	2024.1.0	2024-08-26 11h09.10.324995 +0200	
						1	0	1	0																													#2AB7EF	None	None	None	498.96693229675293	text_02	50	1	Reading_Baseline_main_click	None	von																								YA01	no	2024-08-26_11h08.59.930	EXNAT_3_training	2024.1.0	2024-08-26 11h09.10.324995 +0200	
						1	0	1	0																													#F989A2	None	None	None	564.985990524292	text_02	51	1	Reading_Baseline_main_click	None	Nahrung.																								YA01	no	2024-08-26_11h08.59.930	EXNAT_3_training	2024.1.0	2024-08-26 11h09.10.324995 +0200	
						1	0	1	0																													#D292F3	None	None	None	748.6000061035156	text_02	52	1	Reading_Baseline_main_click	None	Außerdem																								YA01	no	2024-08-26_11h08.59.930	EXNAT_3_training	2024.1.0	2024-08-26 11h09.10.324995 +0200	
						1	0	1	0																													#88BA3F	None	None	None	999.424934387207	text_02	53	1	Reading_Baseline_main_click	None	war																								YA01	no	2024-08-26_11h08.59.930	EXNAT_3_training	2024.1.0	2024-08-26 11h09.10.324995 +0200	
						1	0	1	0																													#D292F3	None	None	None	515.6130790710449	text_02	54	1	Reading_Baseline_main_click	None	es																								YA01	no	2024-08-26_11h08.59.930	EXNAT_3_training	2024.1.0	2024-08-26 11h09.10.324995 +0200	
						1	0	1	0																													#2AB7EF	None	None	None	431.2598705291748	text_02	55	1	Reading_Baseline_main_click	None	weniger																								YA01	no	2024-08-26_11h08.59.930	EXNAT_3_training	2024.1.0	2024-08-26 11h09.10.324995 +0200	
						1	0	1	0																													#88BA3F	None	None	None	515.394926071167	text_02	56	1	Reading_Baseline_main_click	None	gepanzert.																								YA01	no	2024-08-26_11h08.59.930	EXNAT_3_training	2024.1.0	2024-08-26 11h09.10.324995 +0200	
						1	0	1	0																													#D292F3	None	None	None	415.26317596435547	text_02	57	1	Reading_Baseline_main_click	None	Die																								YA01	no	2024-08-26_11h08.59.930	EXNAT_3_training	2024.1.0	2024-08-26 11h09.10.324995 +0200	
						1	0	1	0																													#F989A2	None	None	None	365.18311500549316	text_02	58	1	Reading_Baseline_main_click	None	Forscher																								YA01	no	2024-08-26_11h08.59.930	EXNAT_3_training	2024.1.0	2024-08-26 11h09.10.324995 +0200	
						1	0	1	0																													#D292F3	None	None	None	398.1189727783203	text_02	59	1	Reading_Baseline_main_click	None	"denken,"																								YA01	no	2024-08-26_11h08.59.930	EXNAT_3_training	2024.1.0	2024-08-26 11h09.10.324995 +0200	
						1	0	1	0																													#2AB7EF	None	None	None	430.142879486084	text_02	60	1	Reading_Baseline_main_click	None	dass																								YA01	no	2024-08-26_11h08.59.930	EXNAT_3_training	2024.1.0	2024-08-26 11h09.10.324995 +0200	
						1	0	1	0																													#F989A2	None	None	None	548.818826675415	text_02	61	1	Reading_Baseline_main_click	None	Krokodile																								YA01	no	2024-08-26_11h08.59.930	EXNAT_3_training	2024.1.0	2024-08-26 11h09.10.324995 +0200	
						1	0	1	0																													#2AB7EF	None	None	None	549.1368770599365	text_02	62	1	Reading_Baseline_main_click	None	in																								YA01	no	2024-08-26_11h08.59.930	EXNAT_3_training	2024.1.0	2024-08-26 11h09.10.324995 +0200	
						1	0	1	0																													#2AB7EF	None	None	None	383.16798210144043	text_02	63	1	Reading_Baseline_main_click	None	der																								YA01	no	2024-08-26_11h08.59.930	EXNAT_3_training	2024.1.0	2024-08-26 11h09.10.324995 +0200	
						1	0	1	0																													#88BA3F	None	None	None	548.11692237854	text_02	64	1	Reading_Baseline_main_click	None	Vergangenheit																								YA01	no	2024-08-26_11h08.59.930	EXNAT_3_training	2024.1.0	2024-08-26 11h09.10.324995 +0200	
						1	0	1	0																													#D292F3	None	None	None	415.2839183807373	text_02	65	1	Reading_Baseline_main_click	None	auf																								YA01	no	2024-08-26_11h08.59.930	EXNAT_3_training	2024.1.0	2024-08-26 11h09.10.324995 +0200	
						1	0	1	0																													#D292F3	None	None	None	398.78296852111816	text_02	66	1	Reading_Baseline_main_click	None	der																								YA01	no	2024-08-26_11h08.59.930	EXNAT_3_training	2024.1.0	2024-08-26 11h09.10.324995 +0200	
						1	0	1	0																													#2AB7EF	None	None	None	1333.035945892334	text_02	67	1	Reading_Baseline_main_click	None	Südhalbkugel																								YA01	no	2024-08-26_11h08.59.930	EXNAT_3_training	2024.1.0	2024-08-26 11h09.10.324995 +0200	
						1	0	1	0																													#F989A2	None	None	None	481.6000461578369	text_02	68	1	Reading_Baseline_main_click	None	"lebten,"																								YA01	no	2024-08-26_11h08.59.930	EXNAT_3_training	2024.1.0	2024-08-26 11h09.10.324995 +0200	
						1	0	1	0																													#F989A2	None	None	None	481.34493827819824	text_02	69	1	Reading_Baseline_main_click	None	während																								YA01	no	2024-08-26_11h08.59.930	EXNAT_3_training	2024.1.0	2024-08-26 11h09.10.324995 +0200	
						1	0	1	0																													#88BA3F	None	None	None	398.5450267791748	text_02	70	1	Reading_Baseline_main_click	None	sich																								YA01	no	2024-08-26_11h08.59.930	EXNAT_3_training	2024.1.0	2024-08-26 11h09.10.324995 +0200	
						1	0	1	0																													#88BA3F	None	None	None	481.80198669433594	text_02	71	1	Reading_Baseline_main_click	None	Säugetiere																								YA01	no	2024-08-26_11h08.59.930	EXNAT_3_training	2024.1.0	2024-08-26 11h09.10.324995 +0200	
						1	0	1	0																													#D292F3	None	None	None	448.65989685058594	text_02	72	1	Reading_Baseline_main_click	None	auf																								YA01	no	2024-08-26_11h08.59.930	EXNAT_3_training	2024.1.0	2024-08-26 11h09.10.324995 +0200	
						1	0	1	0																													#D292F3	None	None	None	431.8687915802002	text_02	73	1	Reading_Baseline_main_click	None	der																								YA01	no	2024-08-26_11h08.59.930	EXNAT_3_training	2024.1.0	2024-08-26 11h09.10.324995 +0200	
						1	0	1	0																													#88BA3F	None	None	None	431.7140579223633	text_02	74	1	Reading_Baseline_main_click	None	Nordhalbkugel																								YA01	no	2024-08-26_11h08.59.930	EXNAT_3_training	2024.1.0	2024-08-26 11h09.10.324995 +0200	
						1	0	1	0																													#F989A2	None	None	None	431.7500591278076	text_02	75	1	Reading_Baseline_main_click	None	ausbreiteten.																								YA01	no	2024-08-26_11h08.59.930	EXNAT_3_training	2024.1.0	2024-08-26 11h09.10.324995 +0200	
						1	0	1	0																													#2AB7EF	None	None	None	565.2501583099365	text_02	76	1	Reading_Baseline_main_click	None	Die																								YA01	no	2024-08-26_11h08.59.930	EXNAT_3_training	2024.1.0	2024-08-26 11h09.10.324995 +0200	
						1	0	1	0																													#2AB7EF	None	None	None	481.9011688232422	text_02	77	1	Reading_Baseline_main_click	None	Forscher																								YA01	no	2024-08-26_11h08.59.930	EXNAT_3_training	2024.1.0	2024-08-26 11h09.10.324995 +0200	
						1	0	1	0																													#F989A2	None	None	None	431.7660331726074	text_02	78	1	Reading_Baseline_main_click	None	werden																								YA01	no	2024-08-26_11h08.59.930	EXNAT_3_training	2024.1.0	2024-08-26 11h09.10.324995 +0200	
						1	0	1	0																													#F989A2	None	None	None	432.2350025177002	text_02	79	1	Reading_Baseline_main_click	None	in																								YA01	no	2024-08-26_11h08.59.930	EXNAT_3_training	2024.1.0	2024-08-26 11h09.10.324995 +0200	
						1	0	1	0																													#D292F3	None	None	None	414.9129390716553	text_02	80	1	Reading_Baseline_main_click	None	Zukunft																								YA01	no	2024-08-26_11h08.59.930	EXNAT_3_training	2024.1.0	2024-08-26 11h09.10.324995 +0200	
						1	0	1	0																													#88BA3F	None	None	None	415.07697105407715	text_02	81	1	Reading_Baseline_main_click	None	versuchen																								YA01	no	2024-08-26_11h08.59.930	EXNAT_3_training	2024.1.0	2024-08-26 11h09.10.324995 +0200	
						1	0	1	0																													#88BA3F	None	None	None	415.2841567993164	text_02	82	1	Reading_Baseline_main_click	None	mehr																								YA01	no	2024-08-26_11h08.59.930	EXNAT_3_training	2024.1.0	2024-08-26 11h09.10.324995 +0200	
						1	0	1	0																													#2AB7EF	None	None	None	382.0939064025879	text_02	83	1	Reading_Baseline_main_click	None	über																								YA01	no	2024-08-26_11h08.59.930	EXNAT_3_training	2024.1.0	2024-08-26 11h09.10.324995 +0200	
						1	0	1	0																													#D292F3	None	None	None	398.7851142883301	text_02	84	1	Reading_Baseline_main_click	None	die																								YA01	no	2024-08-26_11h08.59.930	EXNAT_3_training	2024.1.0	2024-08-26 11h09.10.324995 +0200	
						1	0	1	0																													#F989A2	None	None	None	397.8898525238037	text_02	85	1	Reading_Baseline_main_click	None	frühe																								YA01	no	2024-08-26_11h08.59.930	EXNAT_3_training	2024.1.0	2024-08-26 11h09.10.324995 +0200	
						1	0	1	0																													#88BA3F	None	None	None	348.7260341644287	text_02	86	1	Reading_Baseline_main_click	None	Tierwelt																								YA01	no	2024-08-26_11h08.59.930	EXNAT_3_training	2024.1.0	2024-08-26 11h09.10.324995 +0200	
						1	0	1	0																													#2AB7EF	None	None	None	381.8991184234619	text_02	87	1	Reading_Baseline_main_click	None	auf																								YA01	no	2024-08-26_11h08.59.930	EXNAT_3_training	2024.1.0	2024-08-26 11h09.10.324995 +0200	
						1	0	1	0																													#F989A2	None	None	None	381.9911479949951	text_02	88	1	Reading_Baseline_main_click	None	der																								YA01	no	2024-08-26_11h08.59.930	EXNAT_3_training	2024.1.0	2024-08-26 11h09.10.324995 +0200	
						1	0	1	0																													#2AB7EF	None	None	None	748.878002166748	text_02	89	1	Reading_Baseline_main_click	None	Südhalbkugel																								YA01	no	2024-08-26_11h08.59.930	EXNAT_3_training	2024.1.0	2024-08-26 11h09.10.324995 +0200	
						1	0	1	0																													#88BA3F	None	None	None	381.79993629455566	text_02	90	1	Reading_Baseline_main_click	None	zu																								YA01	no	2024-08-26_11h08.59.930	EXNAT_3_training	2024.1.0	2024-08-26 11h09.10.324995 +0200	
						1	0	1	0																													#D292F3	None	None	None	431.20598793029785	text_02	91	1	Reading_Baseline_main_click	None	erfahren.																								YA01	no	2024-08-26_11h08.59.930	EXNAT_3_training	2024.1.0	2024-08-26 11h09.10.324995 +0200	
						1	0	1	0																																		text_02			Reading_Baseline_main_click			546.3556571006775	Q1	3	c	True	2	None																	YA01	no	2024-08-26_11h08.59.930	EXNAT_3_training	2024.1.0	2024-08-26 11h09.10.324995 +0200	
						1	0	1	0																																		text_02			Reading_Baseline_main_click			552.0705010890961	Q2	4	d	True	2	None																	YA01	no	2024-08-26_11h08.59.930	EXNAT_3_training	2024.1.0	2024-08-26 11h09.10.324995 +0200	
						1	0	1	0																																		text_02			Reading_Baseline_main_click			556.196818113327	Q3	2	b	True	2	None																	YA01	no	2024-08-26_11h08.59.930	EXNAT_3_training	2024.1.0	2024-08-26 11h09.10.324995 +0200	
						1	0	1	0																																															560.3586430549622	560.3586630821228	560.3979020118713	560.3979139328003	560.4075610637665	560.4075689315796	560.4241139888763										YA01	no	2024-08-26_11h08.59.930	EXNAT_3_training	2024.1.0	2024-08-26 11h09.10.324995 +0200	
						2	0	2	0	560.4403619766235																									560.4244120121002			#F989A2	False	correct rejection	None	618.0880069732666		1	2	0back_single_training	0																#88BA3F									YA01	no	2024-08-26_11h08.59.930	EXNAT_3_training	2024.1.0	2024-08-26 11h09.10.324995 +0200	
						2	0	2	0																													#D292F3	False	correct rejection	None	363.76404762268066		2	2	0back_single_training	0																#88BA3F									YA01	no	2024-08-26_11h08.59.930	EXNAT_3_training	2024.1.0	2024-08-26 11h09.10.324995 +0200	
						2	0	2	0																													#D292F3	False	correct rejection	None	350.39496421813965		3	2	0back_single_training	0																#88BA3F									YA01	no	2024-08-26_11h08.59.930	EXNAT_3_training	2024.1.0	2024-08-26 11h09.10.324995 +0200	
						2	0	2	0																													#D292F3	False	correct rejection	None	367.0799732208252		4	2	0back_single_training	0																#88BA3F									YA01	no	2024-08-26_11h08.59.930	EXNAT_3_training	2024.1.0	2024-08-26 11h09.10.324995 +0200	
						2	0	2	0																													#D292F3	False	correct rejection	None	352.1459102630615		5	2	0back_single_training	0																#88BA3F									YA01	no	2024-08-26_11h08.59.930	EXNAT_3_training	2024.1.0	2024-08-26 11h09.10.324995 +0200	
						2	0	2	0																													#2AB7EF	False	correct rejection	None	366.82605743408203		6	2	0back_single_training	0																#88BA3F									YA01	no	2024-08-26_11h08.59.930	EXNAT_3_training	2024.1.0	2024-08-26 11h09.10.324995 +0200	
						2	0	2	0																													#2AB7EF	False	correct rejection	None	350.3849506378174		7	2	0back_single_training	0																#88BA3F									YA01	no	2024-08-26_11h08.59.930	EXNAT_3_training	2024.1.0	2024-08-26 11h09.10.324995 +0200	
						2	0	2	0																													#2AB7EF	False	correct rejection	None	350.38304328918457		8	2	0back_single_training	0																#88BA3F									YA01	no	2024-08-26_11h08.59.930	EXNAT_3_training	2024.1.0	2024-08-26 11h09.10.324995 +0200	
						2	0	2	0																													#2AB7EF	False	correct rejection	None	367.0649528503418		9	2	0back_single_training	0																#88BA3F									YA01	no	2024-08-26_11h08.59.930	EXNAT_3_training	2024.1.0	2024-08-26 11h09.10.324995 +0200	
						2	0	2	0																													#2AB7EF	False	correct rejection	None	367.10405349731445		10	2	0back_single_training	0																#88BA3F									YA01	no	2024-08-26_11h08.59.930	EXNAT_3_training	2024.1.0	2024-08-26 11h09.10.324995 +0200	
						2	0	2	0																													#F989A2	False	correct rejection	None	368.2429790496826		11	2	0back_single_training	0																#88BA3F									YA01	no	2024-08-26_11h08.59.930	EXNAT_3_training	2024.1.0	2024-08-26 11h09.10.324995 +0200	
						2	0	2	0																													#D292F3	False	correct rejection	None	349.8101234436035		12	2	0back_single_training	0																#88BA3F									YA01	no	2024-08-26_11h08.59.930	EXNAT_3_training	2024.1.0	2024-08-26 11h09.10.324995 +0200	
						2	0	2	0																													#F989A2	False	correct rejection	None	383.7018013000488		13	2	0back_single_training	0																#88BA3F									YA01	no	2024-08-26_11h08.59.930	EXNAT_3_training	2024.1.0	2024-08-26 11h09.10.324995 +0200	
						2	0	2	0																													#F989A2	False	correct rejection	None	350.39782524108887		14	2	0back_single_training	0																#88BA3F									YA01	no	2024-08-26_11h08.59.930	EXNAT_3_training	2024.1.0	2024-08-26 11h09.10.324995 +0200	
						2	0	2	0																													#88BA3F	True	hit	483.5371971130371	1067.8980350494385		15	2	0back_single_training	0																#88BA3F									YA01	no	2024-08-26_11h08.59.930	EXNAT_3_training	2024.1.0	2024-08-26 11h09.10.324995 +0200	
						2	0	2	0																													#F989A2	False	correct rejection	None	366.5449619293213		16	2	0back_single_training	0																#88BA3F									YA01	no	2024-08-26_11h08.59.930	EXNAT_3_training	2024.1.0	2024-08-26 11h09.10.324995 +0200	
						2	0	2	0																													#88BA3F	True	hit	532.2089195251465	983.0799102783203		17	2	0back_single_training	0																#88BA3F									YA01	no	2024-08-26_11h08.59.930	EXNAT_3_training	2024.1.0	2024-08-26 11h09.10.324995 +0200	
						2	0	2	0																													#88BA3F	True	hit	484.04598236083984	869.3149089813232		18	2	0back_single_training	0																#88BA3F									YA01	no	2024-08-26_11h08.59.930	EXNAT_3_training	2024.1.0	2024-08-26 11h09.10.324995 +0200	
						2	0	2	0																													#88BA3F	True	hit	483.9129447937012	817.8820610046387		19	2	0back_single_training	0																#88BA3F									YA01	no	2024-08-26_11h08.59.930	EXNAT_3_training	2024.1.0	2024-08-26 11h09.10.324995 +0200	
						2	0	2	0																													#88BA3F	True	hit	534.0189933776855	834.6028327941895		20	2	0back_single_training	0																#88BA3F									YA01	no	2024-08-26_11h08.59.930	EXNAT_3_training	2024.1.0	2024-08-26 11h09.10.324995 +0200	
						2	0	2	0																											596.0769679546356	596.0769770145416	#D292F3	False	correct rejection	None	897.7341651916504	text_03	1	3	0back_dual_main_click	0	Orang-Utans															#F989A2									YA01	no	2024-08-26_11h08.59.930	EXNAT_3_training	2024.1.0	2024-08-26 11h09.10.324995 +0200	
						2	0	2	0																													#F989A2	True	hit	699.7389793395996	917.1979427337646	text_03	2	3	0back_dual_main_click	0	bauen															#F989A2									YA01	no	2024-08-26_11h08.59.930	EXNAT_3_training	2024.1.0	2024-08-26 11h09.10.324995 +0200	
						2	0	2	0																													#2AB7EF	False	correct rejection	None	696.9728469848633	text_03	3	3	0back_dual_main_click	0	sich															#F989A2									YA01	no	2024-08-26_11h08.59.930	EXNAT_3_training	2024.1.0	2024-08-26 11h09.10.324995 +0200	
						2	0	2	0																													#F989A2	True	hit	665.024995803833	865.4170036315918	text_03	4	3	0back_dual_main_click	0	jede															#F989A2									YA01	no	2024-08-26_11h08.59.930	EXNAT_3_training	2024.1.0	2024-08-26 11h09.10.324995 +0200	
						2	0	2	0																													#2AB7EF	False	correct rejection	None	516.9620513916016	text_03	5	3	0back_dual_main_click	0	Nacht															#F989A2									YA01	no	2024-08-26_11h08.59.930	EXNAT_3_training	2024.1.0	2024-08-26 11h09.10.324995 +0200	
						2	0	2	0																													#2AB7EF	False	correct rejection	None	614.8340702056885	text_03	6	3	0back_dual_main_click	0	gemütliche															#F989A2									YA01	no	2024-08-26_11h08.59.930	EXNAT_3_training	2024.1.0	2024-08-26 11h09.10.324995 +0200	
						2	0	2	0																													#D292F3	False	correct rejection	None	681.8192005157471	text_03	7	3	0back_dual_main_click	0	Schlafnester															#F989A2									YA01	no	2024-08-26_11h08.59.930	EXNAT_3_training	2024.1.0	2024-08-26 11h09.10.324995 +0200	
						2	0	2	0																													#88BA3F	False	correct rejection	None	732.3868274688721	text_03	8	3	0back_dual_main_click	0	hoch															#F989A2									YA01	no	2024-08-26_11h08.59.930	EXNAT_3_training	2024.1.0	2024-08-26 11h09.10.324995 +0200	
						2	0	2	0																													#2AB7EF	False	correct rejection	None	632.0140361785889	text_03	9	3	0back_dual_main_click	0	in															#F989A2									YA01	no	2024-08-26_11h08.59.930	EXNAT_3_training	2024.1.0	2024-08-26 11h09.10.324995 +0200	
						2	0	2	0																													#D292F3	False	correct rejection	None	566.3008689880371	text_03	10	3	0back_dual_main_click	0	den															#F989A2									YA01	no	2024-08-26_11h08.59.930	EXNAT_3_training	2024.1.0	2024-08-26 11h09.10.324995 +0200	
						2	0	2	0																													#2AB7EF	False	correct rejection	None	481.3399314880371	text_03	11	3	0back_dual_main_click	0	Bäumen.															#F989A2									YA01	no	2024-08-26_11h08.59.930	EXNAT_3_training	2024.1.0	2024-08-26 11h09.10.324995 +0200	
						2	0	2	0																													#88BA3F	False	correct rejection	None	497.6339340209961	text_03	12	3	0back_dual_main_click	0	Diese															#F989A2									YA01	no	2024-08-26_11h08.59.930	EXNAT_3_training	2024.1.0	2024-08-26 11h09.10.324995 +0200	
						2	0	2	0																													#88BA3F	False	correct rejection	None	432.57713317871094	text_03	13	3	0back_dual_main_click	0	Nester															#F989A2									YA01	no	2024-08-26_11h08.59.930	EXNAT_3_training	2024.1.0	2024-08-26 11h09.10.324995 +0200	
						2	0	2	0																													#2AB7EF	False	correct rejection	None	548.8739013671875	text_03	14	3	0back_dual_main_click	0	bestehen															#F989A2									YA01	no	2024-08-26_11h08.59.930	EXNAT_3_training	2024.1.0	2024-08-26 11h09.10.324995 +0200	
						2	0	2	0																													#2AB7EF	False	correct rejection	None	498.9449977874756	text_03	15	3	0back_dual_main_click	0	aus															#F989A2									YA01	no	2024-08-26_11h08.59.930	EXNAT_3_training	2024.1.0	2024-08-26 11h09.10.324995 +0200	
						2	0	2	0																													#88BA3F	False	correct rejection	None	80.68513870239258	text_03	16	3	0back_dual_main_click	0	Ästen															#F989A2									YA01	no	2024-08-26_11h08.59.930	EXNAT_3_training	2024.1.0	2024-08-26 11h09.10.324995 +0200	
						2	0	2	0																													#2AB7EF	False	correct rejection	None	1083.5061073303223	text_03	17	3	0back_dual_main_click	0	und															#F989A2									YA01	no	2024-08-26_11h08.59.930	EXNAT_3_training	2024.1.0	2024-08-26 11h09.10.324995 +0200	
						2	0	2	0																													#D292F3	False	false alarm	665.7178401947021	916.193962097168	text_03	18	3	0back_dual_main_click	0	Blättern															#F989A2									YA01	no	2024-08-26_11h08.59.930	EXNAT_3_training	2024.1.0	2024-08-26 11h09.10.324995 +0200	
						2	0	2	0																													#2AB7EF	False	correct rejection	None	716.0599231719971	text_03	19	3	0back_dual_main_click	0	und															#F989A2									YA01	no	2024-08-26_11h08.59.930	EXNAT_3_training	2024.1.0	2024-08-26 11h09.10.324995 +0200	
						2	0	2	0																													#F989A2	True	hit	615.6930923461914	815.6251907348633	text_03	20	3	0back_dual_main_click	0	bieten															#F989A2									YA01	no	2024-08-26_11h08.59.930	EXNAT_3_training	2024.1.0	2024-08-26 11h09.10.324995 +0200	
						2	0	2	0																													#D292F3	False	correct rejection	None	666.1131381988525	text_03	21	3	0back_dual_main_click	0	den															#F989A2									YA01	no	2024-08-26_11h08.59.930	EXNAT_3_training	2024.1.0	2024-08-26 11h09.10.324995 +0200	
						2	0	2	0																													#88BA3F	False	correct rejection	None	481.65011405944824	text_03	22	3	0back_dual_main_click	0	Affen															#F989A2									YA01	no	2024-08-26_11h08.59.930	EXNAT_3_training	2024.1.0	2024-08-26 11h09.10.324995 +0200	
						2	0	2	0																													#D292F3	False	correct rejection	None	949.0787982940674	text_03	23	3	0back_dual_main_click	0	Komfort															#F989A2									YA01	no	2024-08-26_11h08.59.930	EXNAT_3_training	2024.1.0	2024-08-26 11h09.10.324995 +0200	
						2	0	2	0																													#D292F3	False	correct rejection	None	482.24592208862305	text_03	24	3	0back_dual_main_click	0	und															#F989A2									YA01	no	2024-08-26_11h08.59.930	EXNAT_3_training	2024.1.0	2024-08-26 11h09.10.324995 +0200	
						2	0	2	0																													#2AB7EF	False	correct rejection	None	598.3939170837402	text_03	25	3	0back_dual_main_click	0	Schutz.															#F989A2									YA01	no	2024-08-26_11h08.59.930	EXNAT_3_training	2024.1.0	2024-08-26 11h09.10.324995 +0200	
						2	0	2	0																													#D292F3	False	correct rejection	None	615.1418685913086	text_03	26	3	0back_dual_main_click	0	Forscher															#F989A2									YA01	no	2024-08-26_11h08.59.930	EXNAT_3_training	2024.1.0	2024-08-26 11h09.10.324995 +0200	
						2	0	2	0																													#D292F3	False	correct rejection	None	482.1441173553467	text_03	27	3	0back_dual_main_click	0	haben															#F989A2									YA01	no	2024-08-26_11h08.59.930	EXNAT_3_training	2024.1.0	2024-08-26 11h09.10.324995 +0200	
						2	0	2	0																													#88BA3F	False	correct rejection	None	580.9988975524902	text_03	28	3	0back_dual_main_click	0	"entdeckt,"															#F989A2									YA01	no	2024-08-26_11h08.59.930	EXNAT_3_training	2024.1.0	2024-08-26 11h09.10.324995 +0200	
						2	0	2	0																													#D292F3	False	correct rejection	None	615.8430576324463	text_03	29	3	0back_dual_main_click	0	dass															#F989A2									YA01	no	2024-08-26_11h08.59.930	EXNAT_3_training	2024.1.0	2024-08-26 11h09.10.324995 +0200	
						2	0	2	0																													#2AB7EF	False	correct rejection	None	699.0981101989746	text_03	30	3	0back_dual_main_click	0	Orang-Utans															#F989A2									YA01	no	2024-08-26_11h08.59.930	EXNAT_3_training	2024.1.0	2024-08-26 11h09.10.324995 +0200	
						2	0	2	0																													#88BA3F	False	correct rejection	None	498.94094467163086	text_03	31	3	0back_dual_main_click	0	sehr															#F989A2									YA01	no	2024-08-26_11h08.59.930	EXNAT_3_training	2024.1.0	2024-08-26 11h09.10.324995 +0200	
						2	0	2	0																													#F989A2	True	hit	565.3138160705566	882.5948238372803	text_03	32	3	0back_dual_main_click	0	geschickt															#F989A2									YA01	no	2024-08-26_11h08.59.930	EXNAT_3_training	2024.1.0	2024-08-26 11h09.10.324995 +0200	
						2	0	2	0																													#D292F3	False	correct rejection	None	715.0709629058838	text_03	33	3	0back_dual_main_click	0	vorgehen:															#F989A2									YA01	no	2024-08-26_11h08.59.930	EXNAT_3_training	2024.1.0	2024-08-26 11h09.10.324995 +0200	
						2	0	2	0																													#2AB7EF	False	correct rejection	None	565.7739639282227	text_03	34	3	0back_dual_main_click	0	Sie															#F989A2									YA01	no	2024-08-26_11h08.59.930	EXNAT_3_training	2024.1.0	2024-08-26 11h09.10.324995 +0200	
						2	0	2	0																													#2AB7EF	False	correct rejection	None	498.29602241516113	text_03	35	3	0back_dual_main_click	0	wählen															#F989A2									YA01	no	2024-08-26_11h08.59.930	EXNAT_3_training	2024.1.0	2024-08-26 11h09.10.324995 +0200	
						2	0	2	0																													#88BA3F	False	correct rejection	None	531.8589210510254	text_03	36	3	0back_dual_main_click	0	stabile															#F989A2									YA01	no	2024-08-26_11h08.59.930	EXNAT_3_training	2024.1.0	2024-08-26 11h09.10.324995 +0200	
						2	0	2	0																													#88BA3F	False	correct rejection	None	465.3820991516113	text_03	37	3	0back_dual_main_click	0	Äste															#F989A2									YA01	no	2024-08-26_11h08.59.930	EXNAT_3_training	2024.1.0	2024-08-26 11h09.10.324995 +0200	
						2	0	2	0																													#D292F3	False	correct rejection	None	732.572078704834	text_03	38	3	0back_dual_main_click	0	aus															#F989A2									YA01	no	2024-08-26_11h08.59.930	EXNAT_3_training	2024.1.0	2024-08-26 11h09.10.324995 +0200	
						2	0	2	0																													#D292F3	False	correct rejection	None	482.19919204711914	text_03	39	3	0back_dual_main_click	0	und															#F989A2									YA01	no	2024-08-26_11h08.59.930	EXNAT_3_training	2024.1.0	2024-08-26 11h09.10.324995 +0200	
						2	0	2	0																													#D292F3	False	correct rejection	None	465.40212631225586	text_03	40	3	0back_dual_main_click	0	biegen															#F989A2									YA01	no	2024-08-26_11h08.59.930	EXNAT_3_training	2024.1.0	2024-08-26 11h09.10.324995 +0200	
						2	0	2	0																													#2AB7EF	False	correct rejection	None	431.75506591796875	text_03	41	3	0back_dual_main_click	0	"diese,"															#F989A2									YA01	no	2024-08-26_11h08.59.930	EXNAT_3_training	2024.1.0	2024-08-26 11h09.10.324995 +0200	
						2	0	2	0																													#2AB7EF	False	correct rejection	None	482.2239875793457	text_03	42	3	0back_dual_main_click	0	ohne															#F989A2									YA01	no	2024-08-26_11h08.59.930	EXNAT_3_training	2024.1.0	2024-08-26 11h09.10.324995 +0200	
						2	0	2	0																													#D292F3	False	correct rejection	None	665.7390594482422	text_03	43	3	0back_dual_main_click	0	sie															#F989A2									YA01	no	2024-08-26_11h08.59.930	EXNAT_3_training	2024.1.0	2024-08-26 11h09.10.324995 +0200	
						2	0	2	0																													#2AB7EF	False	correct rejection	None	515.1629447937012	text_03	44	3	0back_dual_main_click	0	ganz															#F989A2									YA01	no	2024-08-26_11h08.59.930	EXNAT_3_training	2024.1.0	2024-08-26 11h09.10.324995 +0200	
						2	0	2	0																													#2AB7EF	False	correct rejection	None	448.6579895019531	text_03	45	3	0back_dual_main_click	0	zu															#F989A2									YA01	no	2024-08-26_11h08.59.930	EXNAT_3_training	2024.1.0	2024-08-26 11h09.10.324995 +0200	
						2	0	2	0																													#D292F3	False	correct rejection	None	648.9908695220947	text_03	46	3	0back_dual_main_click	0	brechen.															#F989A2									YA01	no	2024-08-26_11h08.59.930	EXNAT_3_training	2024.1.0	2024-08-26 11h09.10.324995 +0200	
						2	0	2	0																													#88BA3F	False	correct rejection	None	565.7958984375	text_03	47	3	0back_dual_main_click	0	So															#F989A2									YA01	no	2024-08-26_11h08.59.930	EXNAT_3_training	2024.1.0	2024-08-26 11h09.10.324995 +0200	
						2	0	2	0																													#D292F3	False	correct rejection	None	715.8689498901367	text_03	48	3	0back_dual_main_click	0	entsteht															#F989A2									YA01	no	2024-08-26_11h08.59.930	EXNAT_3_training	2024.1.0	2024-08-26 11h09.10.324995 +0200	
						2	0	2	0																													#F989A2	True	hit	682.610034942627	983.19411277771	text_03	49	3	0back_dual_main_click	0	eine															#F989A2									YA01	no	2024-08-26_11h08.59.930	EXNAT_3_training	2024.1.0	2024-08-26 11h09.10.324995 +0200	
						2	0	2	0																													#F989A2	True	hit	665.8008098602295	916.2919521331787	text_03	50	3	0back_dual_main_click	0	robuste															#F989A2									YA01	no	2024-08-26_11h08.59.930	EXNAT_3_training	2024.1.0	2024-08-26 11h09.10.324995 +0200	
						2	0	2	0																													#F989A2	True	hit	765.1889324188232	932.1799278259277	text_03	51	3	0back_dual_main_click	0	Grundstruktur.															#F989A2									YA01	no	2024-08-26_11h08.59.930	EXNAT_3_training	2024.1.0	2024-08-26 11h09.10.324995 +0200	
						2	0	2	0																													#F989A2	True	miss	None	698.9428997039795	text_03	52	3	0back_dual_main_click	0	Die															#F989A2									YA01	no	2024-08-26_11h08.59.930	EXNAT_3_training	2024.1.0	2024-08-26 11h09.10.324995 +0200	
						2	0	2	0																													#2AB7EF	False	correct rejection	None	1264.6009922027588	text_03	53	3	0back_dual_main_click	0	Polsterung															#F989A2									YA01	no	2024-08-26_11h08.59.930	EXNAT_3_training	2024.1.0	2024-08-26 11h09.10.324995 +0200	
						2	0	2	0																													#2AB7EF	False	correct rejection	None	498.9020824432373	text_03	54	3	0back_dual_main_click	0	der															#F989A2									YA01	no	2024-08-26_11h08.59.930	EXNAT_3_training	2024.1.0	2024-08-26 11h09.10.324995 +0200	
						2	0	2	0																													#88BA3F	False	correct rejection	None	984.8849773406982	text_03	55	3	0back_dual_main_click	0	Nester															#F989A2									YA01	no	2024-08-26_11h08.59.930	EXNAT_3_training	2024.1.0	2024-08-26 11h09.10.324995 +0200	
						2	0	2	0																													#D292F3	False	correct rejection	None	582.2370052337646	text_03	56	3	0back_dual_main_click	0	besteht															#F989A2									YA01	no	2024-08-26_11h08.59.930	EXNAT_3_training	2024.1.0	2024-08-26 11h09.10.324995 +0200	
						2	0	2	0																													#F989A2	True	hit	582.4699401855469	832.9501152038574	text_03	57	3	0back_dual_main_click	0	aus															#F989A2									YA01	no	2024-08-26_11h08.59.930	EXNAT_3_training	2024.1.0	2024-08-26 11h09.10.324995 +0200	
						2	0	2	0																													#88BA3F	False	correct rejection	None	448.6958980560303	text_03	58	3	0back_dual_main_click	0	dünneren															#F989A2									YA01	no	2024-08-26_11h08.59.930	EXNAT_3_training	2024.1.0	2024-08-26 11h09.10.324995 +0200	
						2	0	2	0																													#F989A2	True	hit	598.8898277282715	815.9699440002441	text_03	59	3	0back_dual_main_click	0	Ästen															#F989A2									YA01	no	2024-08-26_11h08.59.930	EXNAT_3_training	2024.1.0	2024-08-26 11h09.10.324995 +0200	
						2	0	2	0																													#2AB7EF	False	correct rejection	None	431.8528175354004	text_03	60	3	0back_dual_main_click	0	und															#F989A2									YA01	no	2024-08-26_11h08.59.930	EXNAT_3_training	2024.1.0	2024-08-26 11h09.10.324995 +0200	
						2	0	2	0																													#D292F3	False	correct rejection	None	498.36087226867676	text_03	61	3	0back_dual_main_click	0	macht															#F989A2									YA01	no	2024-08-26_11h08.59.930	EXNAT_3_training	2024.1.0	2024-08-26 11h09.10.324995 +0200	
						2	0	2	0																													#88BA3F	False	correct rejection	None	449.3601322174072	text_03	62	3	0back_dual_main_click	0	das															#F989A2									YA01	no	2024-08-26_11h08.59.930	EXNAT_3_training	2024.1.0	2024-08-26 11h09.10.324995 +0200	
						2	0	2	0																													#2AB7EF	False	correct rejection	None	515.6300067901611	text_03	63	3	0back_dual_main_click	0	Nest															#F989A2									YA01	no	2024-08-26_11h08.59.930	EXNAT_3_training	2024.1.0	2024-08-26 11h09.10.324995 +0200	
						2	0	2	0																													#D292F3	False	correct rejection	None	598.9689826965332	text_03	64	3	0back_dual_main_click	0	besonders															#F989A2									YA01	no	2024-08-26_11h08.59.930	EXNAT_3_training	2024.1.0	2024-08-26 11h09.10.324995 +0200	
						2	0	2	0																													#D292F3	False	correct rejection	None	414.66212272644043	text_03	65	3	0back_dual_main_click	0	bequem.															#F989A2									YA01	no	2024-08-26_11h08.59.930	EXNAT_3_training	2024.1.0	2024-08-26 11h09.10.324995 +0200	
						2	0	2	0																													#D292F3	False	correct rejection	None	463.7901782989502	text_03	66	3	0back_dual_main_click	0	Diese															#F989A2									YA01	no	2024-08-26_11h08.59.930	EXNAT_3_training	2024.1.0	2024-08-26 11h09.10.324995 +0200	
						2	0	2	0																													#F989A2	True	hit	682.2268962860107	949.4128227233887	text_03	67	3	0back_dual_main_click	0	Bauweise															#F989A2									YA01	no	2024-08-26_11h08.59.930	EXNAT_3_training	2024.1.0	2024-08-26 11h09.10.324995 +0200	
						2	0	2	0																													#D292F3	False	correct rejection	None	615.800142288208	text_03	68	3	0back_dual_main_click	0	schützt															#F989A2									YA01	no	2024-08-26_11h08.59.930	EXNAT_3_training	2024.1.0	2024-08-26 11h09.10.324995 +0200	
						2	0	2	0																													#F989A2	True	hit	717.1158790588379	984.3008518218994	text_03	69	3	0back_dual_main_click	0	die															#F989A2									YA01	no	2024-08-26_11h08.59.930	EXNAT_3_training	2024.1.0	2024-08-26 11h09.10.324995 +0200	
						2	0	2	0																													#88BA3F	False	correct rejection	None	749.1810321807861	text_03	70	3	0back_dual_main_click	0	Orang-Utans															#F989A2									YA01	no	2024-08-26_11h08.59.930	EXNAT_3_training	2024.1.0	2024-08-26 11h09.10.324995 +0200	
						2	0	2	0																													#88BA3F	False	correct rejection	None	482.1460247039795	text_03	71	3	0back_dual_main_click	0	nicht															#F989A2									YA01	no	2024-08-26_11h08.59.930	EXNAT_3_training	2024.1.0	2024-08-26 11h09.10.324995 +0200	
						2	0	2	0																													#2AB7EF	False	correct rejection	None	482.2509288787842	text_03	72	3	0back_dual_main_click	0	nur															#F989A2									YA01	no	2024-08-26_11h08.59.930	EXNAT_3_training	2024.1.0	2024-08-26 11h09.10.324995 +0200	
						2	0	2	0																													#F989A2	True	hit	582.0300579071045	798.6869812011719	text_03	73	3	0back_dual_main_click	0	vor															#F989A2									YA01	no	2024-08-26_11h08.59.930	EXNAT_3_training	2024.1.0	2024-08-26 11h09.10.324995 +0200	
						2	0	2	0																													#F989A2	True	hit	683.1228733062744	900.1979827880859	text_03	74	3	0back_dual_main_click	0	dem															#F989A2									YA01	no	2024-08-26_11h08.59.930	EXNAT_3_training	2024.1.0	2024-08-26 11h09.10.324995 +0200	
						2	0	2	0																													#D292F3	False	correct rejection	None	765.0578022003174	text_03	75	3	0back_dual_main_click	0	"Herunterfallen,"															#F989A2									YA01	no	2024-08-26_11h08.59.930	EXNAT_3_training	2024.1.0	2024-08-26 11h09.10.324995 +0200	
						2	0	2	0																													#2AB7EF	False	correct rejection	None	514.8217678070068	text_03	76	3	0back_dual_main_click	0	sondern															#F989A2									YA01	no	2024-08-26_11h08.59.930	EXNAT_3_training	2024.1.0	2024-08-26 11h09.10.324995 +0200	
						2	0	2	0																													#88BA3F	False	correct rejection	None	448.82988929748535	text_03	77	3	0back_dual_main_click	0	auch															#F989A2									YA01	no	2024-08-26_11h08.59.930	EXNAT_3_training	2024.1.0	2024-08-26 11h09.10.324995 +0200	
						2	0	2	0																													#88BA3F	False	correct rejection	None	465.24691581726074	text_03	78	3	0back_dual_main_click	0	vor															#F989A2									YA01	no	2024-08-26_11h08.59.930	EXNAT_3_training	2024.1.0	2024-08-26 11h09.10.324995 +0200	
						2	0	2	0																													#88BA3F	False	correct rejection	None	448.4601020812988	text_03	79	3	0back_dual_main_click	0	Feinden															#F989A2									YA01	no	2024-08-26_11h08.59.930	EXNAT_3_training	2024.1.0	2024-08-26 11h09.10.324995 +0200	
						2	0	2	0																													#88BA3F	False	correct rejection	None	465.5799865722656	text_03	80	3	0back_dual_main_click	0	und															#F989A2									YA01	no	2024-08-26_11h08.59.930	EXNAT_3_training	2024.1.0	2024-08-26 11h09.10.324995 +0200	
						2	0	2	0																													#2AB7EF	False	correct rejection	None	765.7470703125	text_03	81	3	0back_dual_main_click	0	Parasiten.															#F989A2									YA01	no	2024-08-26_11h08.59.930	EXNAT_3_training	2024.1.0	2024-08-26 11h09.10.324995 +0200	
						2	0	2	0																													#2AB7EF	False	correct rejection	None	448.822021484375	text_03	82	3	0back_dual_main_click	0	So															#F989A2									YA01	no	2024-08-26_11h08.59.930	EXNAT_3_training	2024.1.0	2024-08-26 11h09.10.324995 +0200	
						2	0	2	0																													#88BA3F	False	correct rejection	None	665.6239032745361	text_03	83	3	0back_dual_main_click	0	schlafen															#F989A2									YA01	no	2024-08-26_11h08.59.930	EXNAT_3_training	2024.1.0	2024-08-26 11h09.10.324995 +0200	
						2	0	2	0																													#F989A2	True	hit	665.3549671173096	932.5358867645264	text_03	84	3	0back_dual_main_click	0	die															#F989A2									YA01	no	2024-08-26_11h08.59.930	EXNAT_3_training	2024.1.0	2024-08-26 11h09.10.324995 +0200	
						2	0	2	0																													#88BA3F	False	correct rejection	None	1066.3890838623047	text_03	85	3	0back_dual_main_click	0	Primaten															#F989A2									YA01	no	2024-08-26_11h08.59.930	EXNAT_3_training	2024.1.0	2024-08-26 11h09.10.324995 +0200	
						2	0	2	0																													#D292F3	False	correct rejection	None	565.438985824585	text_03	86	3	0back_dual_main_click	0	sicher															#F989A2									YA01	no	2024-08-26_11h08.59.930	EXNAT_3_training	2024.1.0	2024-08-26 11h09.10.324995 +0200	
						2	0	2	0																													#88BA3F	False	correct rejection	None	816.1931037902832	text_03	87	3	0back_dual_main_click	0	und															#F989A2									YA01	no	2024-08-26_11h08.59.930	EXNAT_3_training	2024.1.0	2024-08-26 11h09.10.324995 +0200	
						2	0	2	0																													#88BA3F	False	correct rejection	None	698.9328861236572	text_03	88	3	0back_dual_main_click	0	komfortabel															#F989A2									YA01	no	2024-08-26_11h08.59.930	EXNAT_3_training	2024.1.0	2024-08-26 11h09.10.324995 +0200	
						2	0	2	0																													#88BA3F	False	correct rejection	None	465.49010276794434	text_03	89	3	0back_dual_main_click	0	in															#F989A2									YA01	no	2024-08-26_11h08.59.930	EXNAT_3_training	2024.1.0	2024-08-26 11h09.10.324995 +0200	
						2	0	2	0																													#88BA3F	False	correct rejection	None	448.67706298828125	text_03	90	3	0back_dual_main_click	0	ihren															#F989A2									YA01	no	2024-08-26_11h08.59.930	EXNAT_3_training	2024.1.0	2024-08-26 11h09.10.324995 +0200	
						2	0	2	0																													#2AB7EF	False	correct rejection	None	532.1550369262695	text_03	91	3	0back_dual_main_click	0	Nestern.															#F989A2									YA01	no	2024-08-26_11h08.59.930	EXNAT_3_training	2024.1.0	2024-08-26 11h09.10.324995 +0200	
						2	0	2	0																																		text_03			0back_dual_main_click			668.0092051029205	Q1	1	a	True	4	0																	YA01	no	2024-08-26_11h08.59.930	EXNAT_3_training	2024.1.0	2024-08-26 11h09.10.324995 +0200	
						2	0	2	0																																		text_03			0back_dual_main_click			674.3112509250641	Q2	1	a	True	4	0																	YA01	no	2024-08-26_11h08.59.930	EXNAT_3_training	2024.1.0	2024-08-26 11h09.10.324995 +0200	
						2	0	2	0																																		text_03			0back_dual_main_click			682.0721700191498	Q3	2	b	True	4	0																	YA01	no	2024-08-26_11h08.59.930	EXNAT_3_training	2024.1.0	2024-08-26 11h09.10.324995 +0200	
						2	0	2	0																																															686.3540320396423	686.3540499210358	686.3938269615173	686.3938400745392	686.4029381275177	686.4029459953308	686.4199869632721										YA01	no	2024-08-26_11h08.59.930	EXNAT_3_training	2024.1.0	2024-08-26 11h09.10.324995 +0200	
						3	0	3	0	686.4357550144196																									686.4202859401703			#88BA3F	False	correct rejection	None	1552.6721477508545		1	4	1back_single_training1	1																									YA01	no	2024-08-26_11h08.59.930	EXNAT_3_training	2024.1.0	2024-08-26 11h09.10.324995 +0200	
						3	0	3	0																													#2AB7EF	False	correct rejection	None	552.5059700012207		2	4	1back_single_training1	1																									YA01	no	2024-08-26_11h08.59.930	EXNAT_3_training	2024.1.0	2024-08-26 11h09.10.324995 +0200	
						3	0	3	0																													#F989A2	False	correct rejection	None	532.3541164398193		3	4	1back_single_training1	1																									YA01	no	2024-08-26_11h08.59.930	EXNAT_3_training	2024.1.0	2024-08-26 11h09.10.324995 +0200	
						3	0	3	0																													#D292F3	False	correct rejection	None	584.0280055999756		4	4	1back_single_training1	1																									YA01	no	2024-08-26_11h08.59.930	EXNAT_3_training	2024.1.0	2024-08-26 11h09.10.324995 +0200	
						3	0	3	0																													#88BA3F	False	correct rejection	None	667.6938533782959		5	4	1back_single_training1	1																									YA01	no	2024-08-26_11h08.59.930	EXNAT_3_training	2024.1.0	2024-08-26 11h09.10.324995 +0200	
						3	0	3	0																													#F989A2	False	correct rejection	None	567.4679279327393		6	4	1back_single_training1	1																									YA01	no	2024-08-26_11h08.59.930	EXNAT_3_training	2024.1.0	2024-08-26 11h09.10.324995 +0200	
						3	0	3	0																													#F989A2	True	hit	550.7738590240479	901.4749526977539		7	4	1back_single_training1	1																									YA01	no	2024-08-26_11h08.59.930	EXNAT_3_training	2024.1.0	2024-08-26 11h09.10.324995 +0200	
						3	0	3	0																													#F989A2	True	hit	517.3940658569336	834.6710205078125		8	4	1back_single_training1	1																									YA01	no	2024-08-26_11h08.59.930	EXNAT_3_training	2024.1.0	2024-08-26 11h09.10.324995 +0200	
						3	0	3	0																													#88BA3F	False	correct rejection	None	650.9759426116943		9	4	1back_single_training1	1																									YA01	no	2024-08-26_11h08.59.930	EXNAT_3_training	2024.1.0	2024-08-26 11h09.10.324995 +0200	
						3	0	3	0																													#2AB7EF	False	correct rejection	None	532.3960781097412		10	4	1back_single_training1	1																									YA01	no	2024-08-26_11h08.59.930	EXNAT_3_training	2024.1.0	2024-08-26 11h09.10.324995 +0200	
						3	0	3	0																													#D292F3	False	correct rejection	None	517.39501953125		11	4	1back_single_training1	1																									YA01	no	2024-08-26_11h08.59.930	EXNAT_3_training	2024.1.0	2024-08-26 11h09.10.324995 +0200	
						3	0	3	0																													#D292F3	True	hit	535.7420444488525	786.2310409545898		12	4	1back_single_training1	1																									YA01	no	2024-08-26_11h08.59.930	EXNAT_3_training	2024.1.0	2024-08-26 11h09.10.324995 +0200	
						3	0	3	0																													#D292F3	True	hit	484.3571186065674	734.8511219024658		13	4	1back_single_training1	1																									YA01	no	2024-08-26_11h08.59.930	EXNAT_3_training	2024.1.0	2024-08-26 11h09.10.324995 +0200	
						3	0	3	0																													#D292F3	True	hit	517.4000263214111	751.1780261993408		14	4	1back_single_training1	1																									YA01	no	2024-08-26_11h08.59.930	EXNAT_3_training	2024.1.0	2024-08-26 11h09.10.324995 +0200	
						3	0	3	0																													#2AB7EF	False	correct rejection	None	550.800085067749		15	4	1back_single_training1	1																									YA01	no	2024-08-26_11h08.59.930	EXNAT_3_training	2024.1.0	2024-08-26 11h09.10.324995 +0200	
						3	0	3	0																													#F989A2	False	correct rejection	None	784.5511436462402		16	4	1back_single_training1	1																									YA01	no	2024-08-26_11h08.59.930	EXNAT_3_training	2024.1.0	2024-08-26 11h09.10.324995 +0200	
						3	0	3	0																													#D292F3	False	correct rejection	None	584.1789245605469		17	4	1back_single_training1	1																									YA01	no	2024-08-26_11h08.59.930	EXNAT_3_training	2024.1.0	2024-08-26 11h09.10.324995 +0200	
						3	0	3	0																													#2AB7EF	False	correct rejection	None	550.8089065551758		18	4	1back_single_training1	1																									YA01	no	2024-08-26_11h08.59.930	EXNAT_3_training	2024.1.0	2024-08-26 11h09.10.324995 +0200	
						3	0	3	0																													#F989A2	False	correct rejection	None	619.2831993103027		19	4	1back_single_training1	1																									YA01	no	2024-08-26_11h08.59.930	EXNAT_3_training	2024.1.0	2024-08-26 11h09.10.324995 +0200	
						3	0	3	0																													#88BA3F	False	correct rejection	None	483.98709297180176		20	4	1back_single_training1	1																									YA01	no	2024-08-26_11h08.59.930	EXNAT_3_training	2024.1.0	2024-08-26 11h09.10.324995 +0200	
						3	0	3	0																													#D292F3	False	correct rejection	None	634.5860958099365		1	6	1back_single_main	1																									YA01	no	2024-08-26_11h08.59.930	EXNAT_3_training	2024.1.0	2024-08-26 11h09.10.324995 +0200	
						3	0	3	0																													#D292F3	True	hit	565.485954284668	932.873010635376		2	6	1back_single_main	1																									YA01	no	2024-08-26_11h08.59.930	EXNAT_3_training	2024.1.0	2024-08-26 11h09.10.324995 +0200	
						3	0	3	0																													#2AB7EF	False	correct rejection	None	600.8901596069336		3	6	1back_single_main	1																									YA01	no	2024-08-26_11h08.59.930	EXNAT_3_training	2024.1.0	2024-08-26 11h09.10.324995 +0200	
						3	0	3	0																													#88BA3F	False	correct rejection	None	402.18091011047363		4	6	1back_single_main	1																									YA01	no	2024-08-26_11h08.59.930	EXNAT_3_training	2024.1.0	2024-08-26 11h09.10.324995 +0200	
						3	0	3	0																													#2AB7EF	False	correct rejection	None	383.8038444519043		5	6	1back_single_main	1																									YA01	no	2024-08-26_11h08.59.930	EXNAT_3_training	2024.1.0	2024-08-26 11h09.10.324995 +0200	
						3	0	3	0																													#88BA3F	False	correct rejection	None	484.0099811553955		6	6	1back_single_main	1																									YA01	no	2024-08-26_11h08.59.930	EXNAT_3_training	2024.1.0	2024-08-26 11h09.10.324995 +0200	
						3	0	3	0																													#D292F3	False	correct rejection	None	433.9029788970947		7	6	1back_single_main	1																									YA01	no	2024-08-26_11h08.59.930	EXNAT_3_training	2024.1.0	2024-08-26 11h09.10.324995 +0200	
						3	0	3	0																													#2AB7EF	False	correct rejection	None	485.72707176208496		8	6	1back_single_main	1																									YA01	no	2024-08-26_11h08.59.930	EXNAT_3_training	2024.1.0	2024-08-26 11h09.10.324995 +0200	
						3	0	3	0																													#F989A2	False	correct rejection	None	717.7479267120361		9	6	1back_single_main	1																									YA01	no	2024-08-26_11h08.59.930	EXNAT_3_training	2024.1.0	2024-08-26 11h09.10.324995 +0200	
						3	0	3	0																													#F989A2	True	hit	500.69499015808105	784.5649719238281		10	6	1back_single_main	1																									YA01	no	2024-08-26_11h08.59.930	EXNAT_3_training	2024.1.0	2024-08-26 11h09.10.324995 +0200	
						3	0	3	0																													#F989A2	True	hit	467.2889709472656	701.0941505432129		11	6	1back_single_main	1																									YA01	no	2024-08-26_11h08.59.930	EXNAT_3_training	2024.1.0	2024-08-26 11h09.10.324995 +0200	
						3	0	3	0																													#88BA3F	False	correct rejection	None	417.1872138977051		12	6	1back_single_main	1																									YA01	no	2024-08-26_11h08.59.930	EXNAT_3_training	2024.1.0	2024-08-26 11h09.10.324995 +0200	
						3	0	3	0																													#D292F3	False	correct rejection	None	398.81396293640137		13	6	1back_single_main	1																									YA01	no	2024-08-26_11h08.59.930	EXNAT_3_training	2024.1.0	2024-08-26 11h09.10.324995 +0200	
						3	0	3	0																													#F989A2	False	correct rejection	None	734.4951629638672		14	6	1back_single_main	1																									YA01	no	2024-08-26_11h08.59.930	EXNAT_3_training	2024.1.0	2024-08-26 11h09.10.324995 +0200	
						3	0	3	0																													#88BA3F	False	correct rejection	None	485.7051372528076		15	6	1back_single_main	1																									YA01	no	2024-08-26_11h08.59.930	EXNAT_3_training	2024.1.0	2024-08-26 11h09.10.324995 +0200	
						3	0	3	0																													#D292F3	False	correct rejection	None	550.7979393005371		16	6	1back_single_main	1																									YA01	no	2024-08-26_11h08.59.930	EXNAT_3_training	2024.1.0	2024-08-26 11h09.10.324995 +0200	
						3	0	3	0																													#F989A2	False	correct rejection	None	834.6459865570068		17	6	1back_single_main	1																									YA01	no	2024-08-26_11h08.59.930	EXNAT_3_training	2024.1.0	2024-08-26 11h09.10.324995 +0200	
						3	0	3	0																													#2AB7EF	False	correct rejection	None	433.87699127197266		18	6	1back_single_main	1																									YA01	no	2024-08-26_11h08.59.930	EXNAT_3_training	2024.1.0	2024-08-26 11h09.10.324995 +0200	
						3	0	3	0																													#D292F3	False	correct rejection	None	417.59800910949707		19	6	1back_single_main	1																									YA01	no	2024-08-26_11h08.59.930	EXNAT_3_training	2024.1.0	2024-08-26 11h09.10.324995 +0200	
						3	0	3	0																													#F989A2	False	correct rejection	None	615.9400939941406		20	6	1back_single_main	1																									YA01	no	2024-08-26_11h08.59.930	EXNAT_3_training	2024.1.0	2024-08-26 11h09.10.324995 +0200	
						3	0	3	0																													#2AB7EF	False	correct rejection	None	600.9299755096436		21	6	1back_single_main	1																									YA01	no	2024-08-26_11h08.59.930	EXNAT_3_training	2024.1.0	2024-08-26 11h09.10.324995 +0200	
						3	0	3	0																													#88BA3F	False	correct rejection	None	435.63294410705566		22	6	1back_single_main	1																									YA01	no	2024-08-26_11h08.59.930	EXNAT_3_training	2024.1.0	2024-08-26 11h09.10.324995 +0200	
						3	0	3	0																													#88BA3F	True	hit	684.3798160552979	1001.6529560089111		23	6	1back_single_main	1																									YA01	no	2024-08-26_11h08.59.930	EXNAT_3_training	2024.1.0	2024-08-26 11h09.10.324995 +0200	
						3	0	3	0																													#2AB7EF	False	correct rejection	None	367.08593368530273		24	6	1back_single_main	1																									YA01	no	2024-08-26_11h08.59.930	EXNAT_3_training	2024.1.0	2024-08-26 11h09.10.324995 +0200	
						3	0	3	0																													#D292F3	False	correct rejection	None	467.7748680114746		25	6	1back_single_main	1																									YA01	no	2024-08-26_11h08.59.930	EXNAT_3_training	2024.1.0	2024-08-26 11h09.10.324995 +0200	
						3	0	3	0																													#F989A2	False	correct rejection	None	634.2730522155762		26	6	1back_single_main	1																									YA01	no	2024-08-26_11h08.59.930	EXNAT_3_training	2024.1.0	2024-08-26 11h09.10.324995 +0200	
						3	0	3	0																													#2AB7EF	False	correct rejection	None	417.1879291534424		27	6	1back_single_main	1																									YA01	no	2024-08-26_11h08.59.930	EXNAT_3_training	2024.1.0	2024-08-26 11h09.10.324995 +0200	
						3	0	3	0																													#88BA3F	False	correct rejection	None	584.2008590698242		28	6	1back_single_main	1																									YA01	no	2024-08-26_11h08.59.930	EXNAT_3_training	2024.1.0	2024-08-26 11h09.10.324995 +0200	
						3	0	3	0																													#88BA3F	True	hit	498.9960193634033	799.5820045471191		29	6	1back_single_main	1																									YA01	no	2024-08-26_11h08.59.930	EXNAT_3_training	2024.1.0	2024-08-26 11h09.10.324995 +0200	
						3	0	3	0																													#F989A2	False	correct rejection	None	483.9768409729004		30	6	1back_single_main	1																									YA01	no	2024-08-26_11h08.59.930	EXNAT_3_training	2024.1.0	2024-08-26 11h09.10.324995 +0200	
						3	0	3	0																													#88BA3F	False	correct rejection	None	686.0828399658203		31	6	1back_single_main	1																									YA01	no	2024-08-26_11h08.59.930	EXNAT_3_training	2024.1.0	2024-08-26 11h09.10.324995 +0200	
						3	0	3	0																													#F989A2	False	correct rejection	None	751.147985458374		32	6	1back_single_main	1																									YA01	no	2024-08-26_11h08.59.930	EXNAT_3_training	2024.1.0	2024-08-26 11h09.10.324995 +0200	
						3	0	3	0																													#D292F3	False	correct rejection	None	567.471981048584		33	6	1back_single_main	1																									YA01	no	2024-08-26_11h08.59.930	EXNAT_3_training	2024.1.0	2024-08-26 11h09.10.324995 +0200	
						3	0	3	0																													#88BA3F	False	correct rejection	None	584.151029586792		34	6	1back_single_main	1																									YA01	no	2024-08-26_11h08.59.930	EXNAT_3_training	2024.1.0	2024-08-26 11h09.10.324995 +0200	
						3	0	3	0																													#2AB7EF	False	correct rejection	None	500.64802169799805		35	6	1back_single_main	1																									YA01	no	2024-08-26_11h08.59.930	EXNAT_3_training	2024.1.0	2024-08-26 11h09.10.324995 +0200	
						3	0	3	0																													#2AB7EF	True	hit	534.5630645751953	785.0580215454102		36	6	1back_single_main	1																									YA01	no	2024-08-26_11h08.59.930	EXNAT_3_training	2024.1.0	2024-08-26 11h09.10.324995 +0200	
						3	0	3	0																													#F989A2	False	correct rejection	None	534.0559482574463		37	6	1back_single_main	1																									YA01	no	2024-08-26_11h08.59.930	EXNAT_3_training	2024.1.0	2024-08-26 11h09.10.324995 +0200	
						3	0	3	0																													#2AB7EF	False	correct rejection	None	482.327938079834		38	6	1back_single_main	1																									YA01	no	2024-08-26_11h08.59.930	EXNAT_3_training	2024.1.0	2024-08-26 11h09.10.324995 +0200	
						3	0	3	0																													#88BA3F	False	correct rejection	None	500.6909370422363		39	6	1back_single_main	1																									YA01	no	2024-08-26_11h08.59.930	EXNAT_3_training	2024.1.0	2024-08-26 11h09.10.324995 +0200	
						3	0	3	0																													#D292F3	False	correct rejection	None	535.822868347168		40	6	1back_single_main	1																									YA01	no	2024-08-26_11h08.59.930	EXNAT_3_training	2024.1.0	2024-08-26 11h09.10.324995 +0200	
						3	0	3	0																													#2AB7EF	False	correct rejection	None	483.95800590515137		41	6	1back_single_main	1																									YA01	no	2024-08-26_11h08.59.930	EXNAT_3_training	2024.1.0	2024-08-26 11h09.10.324995 +0200	
						3	0	3	0																													#F989A2	False	correct rejection	None	551.2731075286865		42	6	1back_single_main	1																									YA01	no	2024-08-26_11h08.59.930	EXNAT_3_training	2024.1.0	2024-08-26 11h09.10.324995 +0200	
						3	0	3	0																													#88BA3F	False	correct rejection	None	417.61302947998047		43	6	1back_single_main	1																									YA01	no	2024-08-26_11h08.59.930	EXNAT_3_training	2024.1.0	2024-08-26 11h09.10.324995 +0200	
						3	0	3	0																													#D292F3	False	correct rejection	None	550.7910251617432		44	6	1back_single_main	1																									YA01	no	2024-08-26_11h08.59.930	EXNAT_3_training	2024.1.0	2024-08-26 11h09.10.324995 +0200	
						3	0	3	0																													#F989A2	False	correct rejection	None	734.407901763916		45	6	1back_single_main	1																									YA01	no	2024-08-26_11h08.59.930	EXNAT_3_training	2024.1.0	2024-08-26 11h09.10.324995 +0200	
						3	0	3	0																													#D292F3	False	correct rejection	None	532.4461460113525		46	6	1back_single_main	1																									YA01	no	2024-08-26_11h08.59.930	EXNAT_3_training	2024.1.0	2024-08-26 11h09.10.324995 +0200	
						3	0	3	0																													#2AB7EF	False	correct rejection	None	433.9151382446289		47	6	1back_single_main	1																									YA01	no	2024-08-26_11h08.59.930	EXNAT_3_training	2024.1.0	2024-08-26 11h09.10.324995 +0200	
						3	0	3	0																													#88BA3F	False	correct rejection	None	500.71001052856445		48	6	1back_single_main	1																									YA01	no	2024-08-26_11h08.59.930	EXNAT_3_training	2024.1.0	2024-08-26 11h09.10.324995 +0200	
						3	0	3	0																													#F989A2	False	correct rejection	None	517.3439979553223		49	6	1back_single_main	1																									YA01	no	2024-08-26_11h08.59.930	EXNAT_3_training	2024.1.0	2024-08-26 11h09.10.324995 +0200	
						3	0	3	0																													#D292F3	False	correct rejection	None	550.7750511169434		50	6	1back_single_main	1																									YA01	no	2024-08-26_11h08.59.930	EXNAT_3_training	2024.1.0	2024-08-26 11h09.10.324995 +0200	
						3	0	3	0																													#2AB7EF	False	correct rejection	None	450.592041015625		51	6	1back_single_main	1																									YA01	no	2024-08-26_11h08.59.930	EXNAT_3_training	2024.1.0	2024-08-26 11h09.10.324995 +0200	
						3	0	3	0																													#F989A2	False	correct rejection	None	599.2348194122314		52	6	1back_single_main	1																									YA01	no	2024-08-26_11h08.59.930	EXNAT_3_training	2024.1.0	2024-08-26 11h09.10.324995 +0200	
						3	0	3	0																													#F989A2	True	hit	634.2699527740479	951.5550136566162		53	6	1back_single_main	1																									YA01	no	2024-08-26_11h08.59.930	EXNAT_3_training	2024.1.0	2024-08-26 11h09.10.324995 +0200	
						3	0	3	0																													#88BA3F	False	correct rejection	None	435.61506271362305		54	6	1back_single_main	1																									YA01	no	2024-08-26_11h08.59.930	EXNAT_3_training	2024.1.0	2024-08-26 11h09.10.324995 +0200	
						3	0	3	0																													#88BA3F	True	hit	450.5810737609863	684.3531131744385		55	6	1back_single_main	1																									YA01	no	2024-08-26_11h08.59.930	EXNAT_3_training	2024.1.0	2024-08-26 11h09.10.324995 +0200	
						3	0	3	0																													#2AB7EF	False	correct rejection	None	417.1948432922363		56	6	1back_single_main	1																									YA01	no	2024-08-26_11h08.59.930	EXNAT_3_training	2024.1.0	2024-08-26 11h09.10.324995 +0200	
						3	0	3	0																													#2AB7EF	True	hit	433.88891220092773	650.9749889373779		57	6	1back_single_main	1																									YA01	no	2024-08-26_11h08.59.930	EXNAT_3_training	2024.1.0	2024-08-26 11h09.10.324995 +0200	
						3	0	3	0																													#D292F3	False	correct rejection	None	448.95100593566895		58	6	1back_single_main	1																									YA01	no	2024-08-26_11h08.59.930	EXNAT_3_training	2024.1.0	2024-08-26 11h09.10.324995 +0200	
						3	0	3	0																													#D292F3	True	hit	734.4789505004883	1051.7868995666504		59	6	1back_single_main	1																									YA01	no	2024-08-26_11h08.59.930	EXNAT_3_training	2024.1.0	2024-08-26 11h09.10.324995 +0200	
						3	0	3	0																													#88BA3F	False	correct rejection	None	500.669002532959		60	6	1back_single_main	1																									YA01	no	2024-08-26_11h08.59.930	EXNAT_3_training	2024.1.0	2024-08-26 11h09.10.324995 +0200	
						3	0	3	0																											787.666834115982	787.6668479442596	#F989A2	False	correct rejection	None	1015.5069828033447	text_01	1	7	1back_dual_main_click	1	Ältere																								YA01	no	2024-08-26_11h08.59.930	EXNAT_3_training	2024.1.0	2024-08-26 11h09.10.324995 +0200	
						3	0	3	0																													#2AB7EF	False	correct rejection	None	499.2539882659912	text_01	2	7	1back_dual_main_click	1	Leitkühe																								YA01	no	2024-08-26_11h08.59.930	EXNAT_3_training	2024.1.0	2024-08-26 11h09.10.324995 +0200	
						3	0	3	0																													#2AB7EF	True	hit	916.0058498382568	1233.008861541748	text_01	3	7	1back_dual_main_click	1	treffen																								YA01	no	2024-08-26_11h08.59.930	EXNAT_3_training	2024.1.0	2024-08-26 11h09.10.324995 +0200	
						3	0	3	0																													#88BA3F	False	correct rejection	None	513.2319927215576	text_01	4	7	1back_dual_main_click	1	bessere																								YA01	no	2024-08-26_11h08.59.930	EXNAT_3_training	2024.1.0	2024-08-26 11h09.10.324995 +0200	
						3	0	3	0																													#88BA3F	True	miss	None	1349.2181301116943	text_01	5	7	1back_dual_main_click	1	Entscheidungen																								YA01	no	2024-08-26_11h08.59.930	EXNAT_3_training	2024.1.0	2024-08-26 11h09.10.324995 +0200	
						3	0	3	0																													#F989A2	False	correct rejection	None	667.6340103149414	text_01	6	7	1back_dual_main_click	1	für																								YA01	no	2024-08-26_11h08.59.930	EXNAT_3_training	2024.1.0	2024-08-26 11h09.10.324995 +0200	
						3	0	3	0																													#D292F3	False	correct rejection	None	548.5720634460449	text_01	7	7	1back_dual_main_click	1	ihre																								YA01	no	2024-08-26_11h08.59.930	EXNAT_3_training	2024.1.0	2024-08-26 11h09.10.324995 +0200	
						3	0	3	0																													#D292F3	True	hit	782.1559906005859	1132.828950881958	text_01	8	7	1back_dual_main_click	1	"Herde,"																								YA01	no	2024-08-26_11h08.59.930	EXNAT_3_training	2024.1.0	2024-08-26 11h09.10.324995 +0200	
						3	0	3	0																													#F989A2	False	correct rejection	None	632.2259902954102	text_01	9	7	1back_dual_main_click	1	als																								YA01	no	2024-08-26_11h08.59.930	EXNAT_3_training	2024.1.0	2024-08-26 11h09.10.324995 +0200	
						3	0	3	0																													#2AB7EF	False	correct rejection	None	598.4809398651123	text_01	10	7	1back_dual_main_click	1	junge.																								YA01	no	2024-08-26_11h08.59.930	EXNAT_3_training	2024.1.0	2024-08-26 11h09.10.324995 +0200	
						3	0	3	0																													#D292F3	False	correct rejection	None	749.1312026977539	text_01	11	7	1back_dual_main_click	1	Die																								YA01	no	2024-08-26_11h08.59.930	EXNAT_3_training	2024.1.0	2024-08-26 11h09.10.324995 +0200	
						3	0	3	0																													#88BA3F	False	correct rejection	None	581.9199085235596	text_01	12	7	1back_dual_main_click	1	Chefin																								YA01	no	2024-08-26_11h08.59.930	EXNAT_3_training	2024.1.0	2024-08-26 11h09.10.324995 +0200	
						3	0	3	0																													#F989A2	False	correct rejection	None	649.2822170257568	text_01	13	7	1back_dual_main_click	1	der																								YA01	no	2024-08-26_11h08.59.930	EXNAT_3_training	2024.1.0	2024-08-26 11h09.10.324995 +0200	
						3	0	3	0																													#F989A2	True	hit	565.5591487884521	882.8420639038086	text_01	14	7	1back_dual_main_click	1	Elefanten																								YA01	no	2024-08-26_11h08.59.930	EXNAT_3_training	2024.1.0	2024-08-26 11h09.10.324995 +0200	
						3	0	3	0																													#88BA3F	False	correct rejection	None	765.8171653747559	text_01	15	7	1back_dual_main_click	1	muss																								YA01	no	2024-08-26_11h08.59.930	EXNAT_3_training	2024.1.0	2024-08-26 11h09.10.324995 +0200	
						3	0	3	0																													#D292F3	False	correct rejection	None	564.8648738861084	text_01	16	7	1back_dual_main_click	1	wichtige																								YA01	no	2024-08-26_11h08.59.930	EXNAT_3_training	2024.1.0	2024-08-26 11h09.10.324995 +0200	
						3	0	3	0																													#88BA3F	False	correct rejection	None	782.5500965118408	text_01	17	7	1back_dual_main_click	1	Entscheidungen																								YA01	no	2024-08-26_11h08.59.930	EXNAT_3_training	2024.1.0	2024-08-26 11h09.10.324995 +0200	
						3	0	3	0																													#D292F3	False	correct rejection	None	665.9379005432129	text_01	18	7	1back_dual_main_click	1	für																								YA01	no	2024-08-26_11h08.59.930	EXNAT_3_training	2024.1.0	2024-08-26 11h09.10.324995 +0200	
						3	0	3	0																													#2AB7EF	False	correct rejection	None	615.8859729766846	text_01	19	7	1back_dual_main_click	1	die																								YA01	no	2024-08-26_11h08.59.930	EXNAT_3_training	2024.1.0	2024-08-26 11h09.10.324995 +0200	
						3	0	3	0																													#2AB7EF	True	hit	898.751974105835	1232.726812362671	text_01	20	7	1back_dual_main_click	1	Gemeinschaft																								YA01	no	2024-08-26_11h08.59.930	EXNAT_3_training	2024.1.0	2024-08-26 11h09.10.324995 +0200	
						3	0	3	0																													#D292F3	False	correct rejection	None	598.9370346069336	text_01	21	7	1back_dual_main_click	1	"treffen,"																								YA01	no	2024-08-26_11h08.59.930	EXNAT_3_training	2024.1.0	2024-08-26 11h09.10.324995 +0200	
						3	0	3	0																													#88BA3F	False	correct rejection	None	681.7119121551514	text_01	22	7	1back_dual_main_click	1	beispielsweise																								YA01	no	2024-08-26_11h08.59.930	EXNAT_3_training	2024.1.0	2024-08-26 11h09.10.324995 +0200	
						3	0	3	0																													#F989A2	False	correct rejection	None	631.6039562225342	text_01	23	7	1back_dual_main_click	1	wohin																								YA01	no	2024-08-26_11h08.59.930	EXNAT_3_training	2024.1.0	2024-08-26 11h09.10.324995 +0200	
						3	0	3	0																													#2AB7EF	False	correct rejection	None	682.621955871582	text_01	24	7	1back_dual_main_click	1	die																								YA01	no	2024-08-26_11h08.59.930	EXNAT_3_training	2024.1.0	2024-08-26 11h09.10.324995 +0200	
						3	0	3	0																													#88BA3F	False	correct rejection	None	513.8888359069824	text_01	25	7	1back_dual_main_click	1	Herde																								YA01	no	2024-08-26_11h08.59.930	EXNAT_3_training	2024.1.0	2024-08-26 11h09.10.324995 +0200	
						3	0	3	0																													#D292F3	False	correct rejection	None	532.289981842041	text_01	26	7	1back_dual_main_click	1	geht																								YA01	no	2024-08-26_11h08.59.930	EXNAT_3_training	2024.1.0	2024-08-26 11h09.10.324995 +0200	
						3	0	3	0																													#D292F3	True	hit	749.2599487304688	1083.2428932189941	text_01	27	7	1back_dual_main_click	1	oder																								YA01	no	2024-08-26_11h08.59.930	EXNAT_3_training	2024.1.0	2024-08-26 11h09.10.324995 +0200	
						3	0	3	0																													#88BA3F	False	correct rejection	None	1168.6160564422607	text_01	28	7	1back_dual_main_click	1	wie																								YA01	no	2024-08-26_11h08.59.930	EXNAT_3_training	2024.1.0	2024-08-26 11h09.10.324995 +0200	
						3	0	3	0																													#D292F3	False	correct rejection	None	482.3458194732666	text_01	29	7	1back_dual_main_click	1	man																								YA01	no	2024-08-26_11h08.59.930	EXNAT_3_training	2024.1.0	2024-08-26 11h09.10.324995 +0200	
						3	0	3	0																													#2AB7EF	False	correct rejection	None	632.1501731872559	text_01	30	7	1back_dual_main_click	1	sich																								YA01	no	2024-08-26_11h08.59.930	EXNAT_3_training	2024.1.0	2024-08-26 11h09.10.324995 +0200	
						3	0	3	0																													#F989A2	False	correct rejection	None	816.0970211029053	text_01	31	7	1back_dual_main_click	1	gegen																								YA01	no	2024-08-26_11h08.59.930	EXNAT_3_training	2024.1.0	2024-08-26 11h09.10.324995 +0200	
						3	0	3	0																													#2AB7EF	False	correct rejection	None	564.7659301757812	text_01	32	7	1back_dual_main_click	1	Löwen																								YA01	no	2024-08-26_11h08.59.930	EXNAT_3_training	2024.1.0	2024-08-26 11h09.10.324995 +0200	
						3	0	3	0																													#F989A2	False	correct rejection	None	1015.8638954162598	text_01	33	7	1back_dual_main_click	1	verteidigt.																								YA01	no	2024-08-26_11h08.59.930	EXNAT_3_training	2024.1.0	2024-08-26 11h09.10.324995 +0200	
						3	0	3	0																													#88BA3F	False	correct rejection	None	664.8290157318115	text_01	34	7	1back_dual_main_click	1	Biologen																								YA01	no	2024-08-26_11h08.59.930	EXNAT_3_training	2024.1.0	2024-08-26 11h09.10.324995 +0200	
						3	0	3	0																													#F989A2	False	correct rejection	None	665.5240058898926	text_01	35	7	1back_dual_main_click	1	konnten																								YA01	no	2024-08-26_11h08.59.930	EXNAT_3_training	2024.1.0	2024-08-26 11h09.10.324995 +0200	
						3	0	3	0																													#2AB7EF	False	correct rejection	None	766.1850452423096	text_01	36	7	1back_dual_main_click	1	in																								YA01	no	2024-08-26_11h08.59.930	EXNAT_3_training	2024.1.0	2024-08-26 11h09.10.324995 +0200	
