loop_run1_single_reading.thisRepN,loop_run1_single_reading.thisTrialN,loop_run1_single_reading.thisN,loop_run1_single_reading.thisIndex,loop_run2_single_nback.thisRepN,loop_run2_single_nback.thisTrialN,loop_run2_single_nback.thisN,loop_run2_single_nback.thisIndex,loop_dual_task_blocks.thisRepN,loop_dual_task_blocks.thisTrialN,loop_dual_task_blocks.thisN,loop_dual_task_blocks.thisIndex,TriggerCount,TriggerTime,colour,global_onset_time,onset_time_rel2trigger,target,nback_response,nback_RT,duration,text_nr,trial_nr,block_nr_exp,run_nr,block_nr_run,block_name,n-back_level,word,question,button_pressed,chosen_ans,ans_correct,participant,session,testing_mode,RT_per_rectangle_oneback_single,RT_per_rectangle_twoback_single,RT_per_letter_baseline,RT_per_letter_oneback_dual,RT_per_letter_twoback_dual,date,expName,psychopyVersion,frameRate,
0,0,0,0,,,,,,,,,1,725.4800870418549,#88BA3F,736.3487520217896,10.868664979934692,None,None,None,632.2279237948457,text_05,1,1,1,1,Reading_Baseline_main_no_click,None,Die,,,,,MA02,001,no,647,905,124,141,193,2024-08-28_10h39.32.796,EXNAT_3_fMRI_Psychopy2023.1.3,2023.1.3,60.05177192861888,
0,0,0,0,,,,,,,,,,,#2AB7EF,736.9991979598999,11.519110918045044,None,None,None,814.0537203252305,text_05,2,1,1,1,Reading_Baseline_main_no_click,None,Korallenriffe,,,,,MA02,001,no,647,905,124,141,193,2024-08-28_10h39.32.796,EXNAT_3_fMRI_Psychopy2023.1.3,2023.1.3,60.05177192861888,
0,0,0,0,,,,,,,,,,,#D292F3,737.8311111927032,12.351024150848389,None,None,None,632.2279237948457,text_05,3,1,1,1,Reading_Baseline_main_no_click,None,und,,,,,MA02,001,no,647,905,124,141,193,2024-08-28_10h39.32.796,EXNAT_3_fMRI_Psychopy2023.1.3,2023.1.3,60.05177192861888,
0,0,0,0,,,,,,,,,,,#88BA3F,738.4804880619049,13.000401020050049,None,None,None,632.2279237948457,text_05,4,1,1,1,Reading_Baseline_main_no_click,None,die,,,,,MA02,001,no,647,905,124,141,193,2024-08-28_10h39.32.796,EXNAT_3_fMRI_Psychopy2023.1.3,2023.1.3,60.05177192861888,
0,0,0,0,,,,,,,,,,,#F989A2,739.131227016449,13.651139974594116,None,None,None,753.8507511682997,text_05,5,1,1,1,Reading_Baseline_main_no_click,None,sandigen,,,,,MA02,001,no,647,905,124,141,193,2024-08-28_10h39.32.796,EXNAT_3_fMRI_Psychopy2023.1.3,2023.1.3,60.05177192861888,
0,0,0,0,,,,,,,,,,,#2AB7EF,739.8983101844788,14.418223142623901,None,None,None,737.2928584828588,text_05,6,1,1,1,Reading_Baseline_main_no_click,None,Buchten,,,,,MA02,001,no,647,905,124,141,193,2024-08-28_10h39.32.796,EXNAT_3_fMRI_Psychopy2023.1.3,2023.1.3,60.05177192861888,
0,0,0,0,,,,,,,,,,,#88BA3F,740.6471359729767,15.167048931121826,None,None,None,667.9005007788664,text_05,7,1,1,1,Reading_Baseline_main_no_click,None,sind,,,,,MA02,001,no,647,905,124,141,193,2024-08-28_10h39.32.796,EXNAT_3_fMRI_Psychopy2023.1.3,2023.1.3,60.05177192861888,
0,0,0,0,,,,,,,,,,,#2AB7EF,741.3309690952301,15.850882053375244,None,None,None,737.2928584828588,text_05,8,1,1,1,Reading_Baseline_main_no_click,None,perfekt,,,,,MA02,001,no,647,905,124,141,193,2024-08-28_10h39.32.796,EXNAT_3_fMRI_Psychopy2023.1.3,2023.1.3,60.05177192861888,
0,0,0,0,,,,,,,,,,,#88BA3F,742.0805451869965,16.6004581451416,None,None,None,632.2279237948457,text_05,9,1,1,1,Reading_Baseline_main_no_click,None,für,,,,,MA02,001,no,647,905,124,141,193,2024-08-28_10h39.32.796,EXNAT_3_fMRI_Psychopy2023.1.3,2023.1.3,60.05177192861888,
0,0,0,0,,,,,,,,,,,#F989A2,742.7304661273956,17.25037908554077,None,None,None,667.9005007788664,text_05,10,1,1,1,Reading_Baseline_main_no_click,None,jede,,,,,MA02,001,no,647,905,124,141,193,2024-08-28_10h39.32.796,EXNAT_3_fMRI_Psychopy2023.1.3,2023.1.3,60.05177192861888,
0,0,0,0,,,,,,,,,,,#D292F3,743.4145820140839,17.934494972229004,None,None,None,847.3184546629708,text_05,11,1,1,1,Reading_Baseline_main_no_click,None,Urlaubsbroschüre.,,,,,MA02,001,no,647,905,124,141,193,2024-08-28_10h39.32.796,EXNAT_3_fMRI_Psychopy2023.1.3,2023.1.3,60.05177192861888,
0,0,0,0,,,,,,,,,,,#F989A2,744.2807450294495,18.800657987594604,None,None,None,768.4558475896913,text_05,12,1,1,1,Reading_Baseline_main_no_click,None,Insgesamt,,,,,MA02,001,no,647,905,124,141,193,2024-08-28_10h39.32.796,EXNAT_3_fMRI_Psychopy2023.1.3,2023.1.3,60.05177192861888,
0,0,0,0,,,,,,,,,,,#2AB7EF,745.063383102417,19.583296060562134,None,None,None,632.2279237948457,text_05,13,1,1,1,Reading_Baseline_main_no_click,None,ist,,,,,MA02,001,no,647,905,124,141,193,2024-08-28_10h39.32.796,EXNAT_3_fMRI_Psychopy2023.1.3,2023.1.3,60.05177192861888,
0,0,0,0,,,,,,,,,,,#F989A2,745.7132720947266,20.233185052871704,None,None,None,632.2279237948457,text_05,14,1,1,1,Reading_Baseline_main_no_click,None,die,,,,,MA02,001,no,647,905,124,141,193,2024-08-28_10h39.32.796,EXNAT_3_fMRI_Psychopy2023.1.3,2023.1.3,60.05177192861888,
0,0,0,0,,,,,,,,,,,#D292F3,746.3637840747833,20.883697032928467,None,None,None,793.339013826998,text_05,15,1,1,1,Reading_Baseline_main_no_click,None,Inselgruppe,,,,,MA02,001,no,647,905,124,141,193,2024-08-28_10h39.32.796,EXNAT_3_fMRI_Psychopy2023.1.3,2023.1.3,60.05177192861888,
0,0,0,0,,,,,,,,,,,#88BA3F,747.1634061336517,21.683319091796875,None,None,None,718.1781741842788,text_05,16,1,1,1,Reading_Baseline_main_no_click,None,namens,,,,,MA02,001,no,647,905,124,141,193,2024-08-28_10h39.32.796,EXNAT_3_fMRI_Psychopy2023.1.3,2023.1.3,60.05177192861888,
0,0,0,0,,,,,,,,,,,#D292F3,747.8971571922302,22.417070150375366,None,None,None,667.9005007788664,text_05,17,1,1,1,Reading_Baseline_main_no_click,None,Nosy,,,,,MA02,001,no,647,905,124,141,193,2024-08-28_10h39.32.796,EXNAT_3_fMRI_Psychopy2023.1.3,2023.1.3,60.05177192861888,
0,0,0,0,,,,,,,,,,,#2AB7EF,748.5802121162415,23.100125074386597,None,None,None,667.9005007788664,text_05,18,1,1,1,Reading_Baseline_main_no_click,None,Hara,,,,,MA02,001,no,647,905,124,141,193,2024-08-28_10h39.32.796,EXNAT_3_fMRI_Psychopy2023.1.3,2023.1.3,60.05177192861888,
0,0,0,0,,,,,,,,,,,#F989A2,749.2632989883423,23.783211946487427,None,None,None,632.2279237948457,text_05,19,1,1,1,Reading_Baseline_main_no_click,None,vor,,,,,MA02,001,no,647,905,124,141,193,2024-08-28_10h39.32.796,EXNAT_3_fMRI_Psychopy2023.1.3,2023.1.3,60.05177192861888,
0,0,0,0,,,,,,,,,,,#88BA3F,749.913577079773,24.43349003791809,None,None,None,781.5205515312616,text_05,20,1,1,1,Reading_Baseline_main_no_click,None,Madagaskar,,,,,MA02,001,no,647,905,124,141,193,2024-08-28_10h39.32.796,EXNAT_3_fMRI_Psychopy2023.1.3,2023.1.3,60.05177192861888,
0,0,0,0,,,,,,,,,,,#2AB7EF,750.7128319740295,25.232744932174683,None,None,None,667.9005007788664,text_05,21,1,1,1,Reading_Baseline_main_no_click,None,aber,,,,,MA02,001,no,647,905,124,141,193,2024-08-28_10h39.32.796,EXNAT_3_fMRI_Psychopy2023.1.3,2023.1.3,60.05177192861888,
0,0,0,0,,,,,,,,,,,#F989A2,751.396082162857,25.915995121002197,None,None,None,667.9005007788664,text_05,22,1,1,1,Reading_Baseline_main_no_click,None,doch,,,,,MA02,001,no,647,905,124,141,193,2024-08-28_10h39.32.796,EXNAT_3_fMRI_Psychopy2023.1.3,2023.1.3,60.05177192861888,
0,0,0,0,,,,,,,,,,,#2AB7EF,752.0796780586243,26.59959101676941,None,None,None,695.5703011418284,text_05,23,1,1,1,Reading_Baseline_main_no_click,None,recht,,,,,MA02,001,no,647,905,124,141,193,2024-08-28_10h39.32.796,EXNAT_3_fMRI_Psychopy2023.1.3,2023.1.3,60.05177192861888,
0,0,0,0,,,,,,,,,,,#88BA3F,752.7794301509857,27.29934310913086,None,None,None,695.5703011418284,text_05,24,1,1,1,Reading_Baseline_main_no_click,None,karg.,,,,,MA02,001,no,647,905,124,141,193,2024-08-28_10h39.32.796,EXNAT_3_fMRI_Psychopy2023.1.3,2023.1.3,60.05177192861888,
0,0,0,0,,,,,,,,,,,#2AB7EF,753.4794001579285,27.99931311607361,None,None,None,620.0,text_05,25,1,1,1,Reading_Baseline_main_no_click,None,In,,,,,MA02,001,no,647,905,124,141,193,2024-08-28_10h39.32.796,EXNAT_3_fMRI_Psychopy2023.1.3,2023.1.3,60.05177192861888,
0,0,0,0,,,,,,,,,,,#F989A2,754.1126680374146,28.632580995559692,None,None,None,718.1781741842788,text_05,26,1,1,1,Reading_Baseline_main_no_click,None,dieser,,,,,MA02,001,no,647,905,124,141,193,2024-08-28_10h39.32.796,EXNAT_3_fMRI_Psychopy2023.1.3,2023.1.3,60.05177192861888,
0,0,0,0,,,,,,,,,,,#2AB7EF,754.8457939624786,29.36570692062378,None,None,None,667.9005007788664,text_05,27,1,1,1,Reading_Baseline_main_no_click,None,eher,,,,,MA02,001,no,647,905,124,141,193,2024-08-28_10h39.32.796,EXNAT_3_fMRI_Psychopy2023.1.3,2023.1.3,60.05177192861888,
0,0,0,0,,,,,,,,,,,#D292F3,755.5293941497803,30.049307107925415,None,None,None,847.3184546629708,text_05,28,1,1,1,Reading_Baseline_main_no_click,None,lebensfeindlichen,,,,,MA02,001,no,647,905,124,141,193,2024-08-28_10h39.32.796,EXNAT_3_fMRI_Psychopy2023.1.3,2023.1.3,60.05177192861888,
0,0,0,0,,,,,,,,,,,#F989A2,756.3791360855103,30.899049043655396,None,None,None,753.8507511682997,text_05,29,1,1,1,Reading_Baseline_main_no_click,None,Umgebung,,,,,MA02,001,no,647,905,124,141,193,2024-08-28_10h39.32.796,EXNAT_3_fMRI_Psychopy2023.1.3,2023.1.3,60.05177192861888,
0,0,0,0,,,,,,,,,,,#88BA3F,757.1456890106201,31.66560196876526,None,None,None,695.5703011418284,text_05,30,1,1,1,Reading_Baseline_main_no_click,None,haben,,,,,MA02,001,no,647,905,124,141,193,2024-08-28_10h39.32.796,EXNAT_3_fMRI_Psychopy2023.1.3,2023.1.3,60.05177192861888,
0,0,0,0,,,,,,,,,,,#D292F3,757.8457200527191,32.36563301086426,None,None,None,753.8507511682997,text_05,31,1,1,1,Reading_Baseline_main_no_click,None,Biologen,,,,,MA02,001,no,647,905,124,141,193,2024-08-28_10h39.32.796,EXNAT_3_fMRI_Psychopy2023.1.3,2023.1.3,60.05177192861888,
0,0,0,0,,,,,,,,,,,#2AB7EF,758.6122989654541,33.13221192359924,None,None,None,632.2279237948457,text_05,32,1,1,1,Reading_Baseline_main_no_click,None,nun,,,,,MA02,001,no,647,905,124,141,193,2024-08-28_10h39.32.796,EXNAT_3_fMRI_Psychopy2023.1.3,2023.1.3,60.05177192861888,
0,0,0,0,,,,,,,,,,,#88BA3F,759.2620761394501,33.781989097595215,None,None,None,667.9005007788664,text_05,33,1,1,1,Reading_Baseline_main_no_click,None,eine,,,,,MA02,001,no,647,905,124,141,193,2024-08-28_10h39.32.796,EXNAT_3_fMRI_Psychopy2023.1.3,2023.1.3,60.05177192861888,
0,0,0,0,,,,,,,,,,,#F989A2,759.9452919960022,34.46520495414734,None,None,None,667.9005007788664,text_05,34,1,1,1,Reading_Baseline_main_no_click,None,neue,,,,,MA02,001,no,647,905,124,141,193,2024-08-28_10h39.32.796,EXNAT_3_fMRI_Psychopy2023.1.3,2023.1.3,60.05177192861888,
0,0,0,0,,,,,,,,,,,#88BA3F,760.6293070316315,35.14921998977661,None,None,None,737.2928584828588,text_05,35,1,1,1,Reading_Baseline_main_no_click,None,Tierart,,,,,MA02,001,no,647,905,124,141,193,2024-08-28_10h39.32.796,EXNAT_3_fMRI_Psychopy2023.1.3,2023.1.3,60.05177192861888,
0,0,0,0,,,,,,,,,,,#D292F3,761.3792760372162,35.89918899536133,None,None,None,768.4558475896913,text_05,36,1,1,1,Reading_Baseline_main_no_click,None,entdeckt:,,,,,MA02,001,no,647,905,124,141,193,2024-08-28_10h39.32.796,EXNAT_3_fMRI_Psychopy2023.1.3,2023.1.3,60.05177192861888,
0,0,0,0,,,,,,,,,,,#88BA3F,762.1619100570679,36.68182301521301,None,None,None,632.2279237948457,text_05,37,1,1,1,Reading_Baseline_main_no_click,None,Das,,,,,MA02,001,no,647,905,124,141,193,2024-08-28_10h39.32.796,EXNAT_3_fMRI_Psychopy2023.1.3,2023.1.3,60.05177192861888,
0,0,0,0,,,,,,,,,,,#2AB7EF,762.8127071857452,37.33262014389038,None,None,None,737.2928584828588,text_05,38,1,1,1,Reading_Baseline_main_no_click,None,winzige,,,,,MA02,001,no,647,905,124,141,193,2024-08-28_10h39.32.796,EXNAT_3_fMRI_Psychopy2023.1.3,2023.1.3,60.05177192861888,
0,0,0,0,,,,,,,,,,,#D292F3,763.5626721382141,38.08258509635925,None,None,None,768.4558475896913,text_05,39,1,1,1,Reading_Baseline_main_no_click,None,Chamäleon,,,,,MA02,001,no,647,905,124,141,193,2024-08-28_10h39.32.796,EXNAT_3_fMRI_Psychopy2023.1.3,2023.1.3,60.05177192861888,
0,0,0,0,,,,,,,,,,,#88BA3F,764.3452990055084,38.865211963653564,None,None,None,768.4558475896913,text_05,40,1,1,1,Reading_Baseline_main_no_click,None,Brookesia,,,,,MA02,001,no,647,905,124,141,193,2024-08-28_10h39.32.796,EXNAT_3_fMRI_Psychopy2023.1.3,2023.1.3,60.05177192861888,
0,0,0,0,,,,,,,,,,,#2AB7EF,765.1287491321564,39.648662090301514,None,None,None,718.1781741842788,text_05,41,1,1,1,Reading_Baseline_main_no_click,None,micra.,,,,,MA02,001,no,647,905,124,141,193,2024-08-28_10h39.32.796,EXNAT_3_fMRI_Psychopy2023.1.3,2023.1.3,60.05177192861888,
0,0,0,0,,,,,,,,,,,#88BA3F,765.861937046051,40.38185000419617,None,None,None,632.2279237948457,text_05,42,1,1,1,Reading_Baseline_main_no_click,None,Von,,,,,MA02,001,no,647,905,124,141,193,2024-08-28_10h39.32.796,EXNAT_3_fMRI_Psychopy2023.1.3,2023.1.3,60.05177192861888,
0,0,0,0,,,,,,,,,,,#F989A2,766.5113351345062,41.03124809265137,None,None,None,632.2279237948457,text_05,43,1,1,1,Reading_Baseline_main_no_click,None,der,,,,,MA02,001,no,647,905,124,141,193,2024-08-28_10h39.32.796,EXNAT_3_fMRI_Psychopy2023.1.3,2023.1.3,60.05177192861888,
0,0,0,0,,,,,,,,,,,#2AB7EF,767.1619160175323,41.68182897567749,None,None,None,753.8507511682997,text_05,44,1,1,1,Reading_Baseline_main_no_click,None,Schnauze,,,,,MA02,001,no,647,905,124,141,193,2024-08-28_10h39.32.796,EXNAT_3_fMRI_Psychopy2023.1.3,2023.1.3,60.05177192861888,
0,0,0,0,,,,,,,,,,,#F989A2,767.9280459880829,42.44795894622803,None,None,None,632.2279237948457,text_05,45,1,1,1,Reading_Baseline_main_no_click,None,bis,,,,,MA02,001,no,647,905,124,141,193,2024-08-28_10h39.32.796,EXNAT_3_fMRI_Psychopy2023.1.3,2023.1.3,60.05177192861888,
0,0,0,0,,,,,,,,,,,#D292F3,768.5779039859772,43.097816944122314,None,None,None,632.2279237948457,text_05,46,1,1,1,Reading_Baseline_main_no_click,None,zum,,,,,MA02,001,no,647,905,124,141,193,2024-08-28_10h39.32.796,EXNAT_3_fMRI_Psychopy2023.1.3,2023.1.3,60.05177192861888,
0,0,0,0,,,,,,,,,,,#2AB7EF,769.2281999588013,43.74811291694641,None,None,None,793.339013826998,text_05,47,1,1,1,Reading_Baseline_main_no_click,None,Schwanzende,,,,,MA02,001,no,647,905,124,141,193,2024-08-28_10h39.32.796,EXNAT_3_fMRI_Psychopy2023.1.3,2023.1.3,60.05177192861888,
0,0,0,0,,,,,,,,,,,#88BA3F,770.0278751850128,44.54778814315796,None,None,None,695.5703011418284,text_05,48,1,1,1,Reading_Baseline_main_no_click,None,misst,,,,,MA02,001,no,647,905,124,141,193,2024-08-28_10h39.32.796,EXNAT_3_fMRI_Psychopy2023.1.3,2023.1.3,60.05177192861888,
0,0,0,0,,,,,,,,,,,#2AB7EF,770.7276661396027,45.2475790977478,None,None,None,620.0,text_05,49,1,1,1,Reading_Baseline_main_no_click,None,es,,,,,MA02,001,no,647,905,124,141,193,2024-08-28_10h39.32.796,EXNAT_3_fMRI_Psychopy2023.1.3,2023.1.3,60.05177192861888,
0,0,0,0,,,,,,,,,,,#88BA3F,771.361358165741,45.88127112388611,None,None,None,737.2928584828588,text_05,50,1,1,1,Reading_Baseline_main_no_click,None,weniger,,,,,MA02,001,no,647,905,124,141,193,2024-08-28_10h39.32.796,EXNAT_3_fMRI_Psychopy2023.1.3,2023.1.3,60.05177192861888,
0,0,0,0,,,,,,,,,,,#D292F3,772.1108610630035,46.63077402114868,None,None,None,632.2279237948457,text_05,51,1,1,1,Reading_Baseline_main_no_click,None,als,,,,,MA02,001,no,647,905,124,141,193,2024-08-28_10h39.32.796,EXNAT_3_fMRI_Psychopy2023.1.3,2023.1.3,60.05177192861888,
0,0,0,0,,,,,,,,,,,#F989A2,772.7608861923218,47.28079915046692,None,None,None,667.9005007788664,text_05,52,1,1,1,Reading_Baseline_main_no_click,None,drei,,,,,MA02,001,no,647,905,124,141,193,2024-08-28_10h39.32.796,EXNAT_3_fMRI_Psychopy2023.1.3,2023.1.3,60.05177192861888,
0,0,0,0,,,,,,,,,,,#88BA3F,773.4447779655457,47.964690923690796,None,None,None,793.339013826998,text_05,53,1,1,1,Reading_Baseline_main_no_click,None,Zentimeter.,,,,,MA02,001,no,647,905,124,141,193,2024-08-28_10h39.32.796,EXNAT_3_fMRI_Psychopy2023.1.3,2023.1.3,60.05177192861888,
0,0,0,0,,,,,,,,,,,#2AB7EF,774.2446219921112,48.76453495025635,None,None,None,753.8507511682997,text_05,54,1,1,1,Reading_Baseline_main_no_click,None,Farblich,,,,,MA02,001,no,647,905,124,141,193,2024-08-28_10h39.32.796,EXNAT_3_fMRI_Psychopy2023.1.3,2023.1.3,60.05177192861888,
0,0,0,0,,,,,,,,,,,#F989A2,775.0108239650726,49.53073692321777,None,None,None,718.1781741842788,text_05,55,1,1,1,Reading_Baseline_main_no_click,None,machen,,,,,MA02,001,no,647,905,124,141,193,2024-08-28_10h39.32.796,EXNAT_3_fMRI_Psychopy2023.1.3,2023.1.3,60.05177192861888,
0,0,0,0,,,,,,,,,,,#D292F3,775.743889093399,50.26380205154419,None,None,None,632.2279237948457,text_05,56,1,1,1,Reading_Baseline_main_no_click,None,die,,,,,MA02,001,no,647,905,124,141,193,2024-08-28_10h39.32.796,EXNAT_3_fMRI_Psychopy2023.1.3,2023.1.3,60.05177192861888,
0,0,0,0,,,,,,,,,,,#D292F3,776.394031047821,50.91394400596619,None,None,None,737.2928584828588,text_05,57,1,1,1,Reading_Baseline_main_no_click,None,braunen,,,,,MA02,001,no,647,905,124,141,193,2024-08-28_10h39.32.796,EXNAT_3_fMRI_Psychopy2023.1.3,2023.1.3,60.05177192861888,
0,0,0,0,,,,,,,,,,,#88BA3F,777.1439771652222,51.66389012336731,None,None,None,753.8507511682997,text_05,58,1,1,1,Reading_Baseline_main_no_click,None,Tierchen,,,,,MA02,001,no,647,905,124,141,193,2024-08-28_10h39.32.796,EXNAT_3_fMRI_Psychopy2023.1.3,2023.1.3,60.05177192861888,
0,0,0,0,,,,,,,,,,,#88BA3F,777.9107911586761,52.43070411682129,None,None,None,695.5703011418284,text_05,59,1,1,1,Reading_Baseline_main_no_click,None,wenig,,,,,MA02,001,no,647,905,124,141,193,2024-08-28_10h39.32.796,EXNAT_3_fMRI_Psychopy2023.1.3,2023.1.3,60.05177192861888,
0,0,0,0,,,,,,,,,,,#F989A2,778.6103739738464,53.13028693199158,None,None,None,667.9005007788664,text_05,60,1,1,1,Reading_Baseline_main_no_click,None,her.,,,,,MA02,001,no,647,905,124,141,193,2024-08-28_10h39.32.796,EXNAT_3_fMRI_Psychopy2023.1.3,2023.1.3,60.05177192861888,
0,0,0,0,,,,,,,,,,,#2AB7EF,779.2936460971832,53.81355905532837,None,None,None,667.9005007788664,text_05,61,1,1,1,Reading_Baseline_main_no_click,None,Doch,,,,,MA02,001,no,647,905,124,141,193,2024-08-28_10h39.32.796,EXNAT_3_fMRI_Psychopy2023.1.3,2023.1.3,60.05177192861888,
0,0,0,0,,,,,,,,,,,#F989A2,779.9768710136414,54.4967839717865,None,None,None,667.9005007788664,text_05,62,1,1,1,Reading_Baseline_main_no_click,None,ihre,,,,,MA02,001,no,647,905,124,141,193,2024-08-28_10h39.32.796,EXNAT_3_fMRI_Psychopy2023.1.3,2023.1.3,60.05177192861888,
0,0,0,0,,,,,,,,,,,#88BA3F,780.6603350639343,55.18024802207947,None,None,None,737.2928584828588,text_05,63,1,1,1,Reading_Baseline_main_no_click,None,winzige,,,,,MA02,001,no,647,905,124,141,193,2024-08-28_10h39.32.796,EXNAT_3_fMRI_Psychopy2023.1.3,2023.1.3,60.05177192861888,
0,0,0,0,,,,,,,,,,,#2AB7EF,781.4109210968018,55.9308340549469,None,None,None,793.339013826998,text_05,64,1,1,1,Reading_Baseline_main_no_click,None,Körpergröße,,,,,MA02,001,no,647,905,124,141,193,2024-08-28_10h39.32.796,EXNAT_3_fMRI_Psychopy2023.1.3,2023.1.3,60.05177192861888,
0,0,0,0,,,,,,,,,,,#D292F3,782.2104170322418,56.73032999038696,None,None,None,781.5205515312616,text_05,65,1,1,1,Reading_Baseline_main_no_click,None,fasziniert,,,,,MA02,001,no,647,905,124,141,193,2024-08-28_10h39.32.796,EXNAT_3_fMRI_Psychopy2023.1.3,2023.1.3,60.05177192861888,
0,0,0,0,,,,,,,,,,,#88BA3F,783.009957075119,57.52987003326416,None,None,None,632.2279237948457,text_05,66,1,1,1,Reading_Baseline_main_no_click,None,die,,,,,MA02,001,no,647,905,124,141,193,2024-08-28_10h39.32.796,EXNAT_3_fMRI_Psychopy2023.1.3,2023.1.3,60.05177192861888,
0,0,0,0,,,,,,,,,,,#D292F3,783.6600711345673,58.1799840927124,None,None,None,768.4558475896913,text_05,67,1,1,1,Reading_Baseline_main_no_click,None,Forscher.,,,,,MA02,001,no,647,905,124,141,193,2024-08-28_10h39.32.796,EXNAT_3_fMRI_Psychopy2023.1.3,2023.1.3,60.05177192861888,
0,0,0,0,,,,,,,,,,,#2AB7EF,784.4439101219177,58.963823080062866,None,None,None,667.9005007788664,text_05,68,1,1,1,Reading_Baseline_main_no_click,None,""Das,,,,,MA02,001,no,647,905,124,141,193,2024-08-28_10h39.32.796,EXNAT_3_fMRI_Psychopy2023.1.3,2023.1.3,60.05177192861888,
0,0,0,0,,,,,,,,,,,#D292F3,785.1264190673828,59.646332025527954,None,None,None,632.2279237948457,text_05,69,1,1,1,Reading_Baseline_main_no_click,None,ist,,,,,MA02,001,no,647,905,124,141,193,2024-08-28_10h39.32.796,EXNAT_3_fMRI_Psychopy2023.1.3,2023.1.3,60.05177192861888,
0,0,0,0,,,,,,,,,,,#2AB7EF,785.7769231796265,60.296836137771606,None,None,None,737.2928584828588,text_05,70,1,1,1,Reading_Baseline_main_no_click,None,"nichts,",,,,,MA02,001,no,647,905,124,141,193,2024-08-28_10h39.32.796,EXNAT_3_fMRI_Psychopy2023.1.3,2023.1.3,60.05177192861888,
0,0,0,0,,,,,,,,,,,#F989A2,786.5262520313263,61.046164989471436,None,None,None,620.0,text_05,71,1,1,1,Reading_Baseline_main_no_click,None,wo,,,,,MA02,001,no,647,905,124,141,193,2024-08-28_10h39.32.796,EXNAT_3_fMRI_Psychopy2023.1.3,2023.1.3,60.05177192861888,
0,0,0,0,,,,,,,,,,,#F989A2,787.1595501899719,61.679463148117065,None,None,None,632.2279237948457,text_05,72,1,1,1,Reading_Baseline_main_no_click,None,man,,,,,MA02,001,no,647,905,124,141,193,2024-08-28_10h39.32.796,EXNAT_3_fMRI_Psychopy2023.1.3,2023.1.3,60.05177192861888,
0,0,0,0,,,,,,,,,,,#2AB7EF,787.8096470832825,62.32956004142761,None,None,None,695.5703011418284,text_05,73,1,1,1,Reading_Baseline_main_no_click,None,viele,,,,,MA02,001,no,647,905,124,141,193,2024-08-28_10h39.32.796,EXNAT_3_fMRI_Psychopy2023.1.3,2023.1.3,60.05177192861888,
0,0,0,0,,,,,,,,,,,#F989A2,788.509880065918,63.02979302406311,None,None,None,823.243108872292,text_05,74,1,1,1,Reading_Baseline_main_no_click,None,Untersuchungen,,,,,MA02,001,no,647,905,124,141,193,2024-08-28_10h39.32.796,EXNAT_3_fMRI_Psychopy2023.1.3,2023.1.3,60.05177192861888,
0,0,0,0,,,,,,,,,,,#D292F3,789.3428449630737,63.86275792121887,None,None,None,718.1781741842788,text_05,75,1,1,1,Reading_Baseline_main_no_click,None,machen,,,,,MA02,001,no,647,905,124,141,193,2024-08-28_10h39.32.796,EXNAT_3_fMRI_Psychopy2023.1.3,2023.1.3,60.05177192861888,
0,0,0,0,,,,,,,,,,,#88BA3F,790.0761060714722,64.59601902961731,None,None,None,695.5703011418284,text_05,76,1,1,1,Reading_Baseline_main_no_click,None,muss.,,,,,MA02,001,no,647,905,124,141,193,2024-08-28_10h39.32.796,EXNAT_3_fMRI_Psychopy2023.1.3,2023.1.3,60.05177192861888,
0,0,0,0,,,,,,,,,,,#D292F3,790.7760770320892,65.29598999023438,None,None,None,632.2279237948457,text_05,77,1,1,1,Reading_Baseline_main_no_click,None,Man,,,,,MA02,001,no,647,905,124,141,193,2024-08-28_10h39.32.796,EXNAT_3_fMRI_Psychopy2023.1.3,2023.1.3,60.05177192861888,
0,0,0,0,,,,,,,,,,,#D292F3,791.4260511398315,65.94596409797668,None,None,None,737.2928584828588,text_05,78,1,1,1,Reading_Baseline_main_no_click,None,erkennt,,,,,MA02,001,no,647,905,124,141,193,2024-08-28_10h39.32.796,EXNAT_3_fMRI_Psychopy2023.1.3,2023.1.3,60.05177192861888,
0,0,0,0,,,,,,,,,,,#2AB7EF,792.1757800579071,66.69569301605225,None,None,None,667.9005007788664,text_05,79,1,1,1,Reading_Baseline_main_no_click,None,auch,,,,,MA02,001,no,647,905,124,141,193,2024-08-28_10h39.32.796,EXNAT_3_fMRI_Psychopy2023.1.3,2023.1.3,60.05177192861888,
0,0,0,0,,,,,,,,,,,#88BA3F,792.8590650558472,67.37897801399231,None,None,None,632.2279237948457,text_05,80,1,1,1,Reading_Baseline_main_no_click,None,"so,",,,,,MA02,001,no,647,905,124,141,193,2024-08-28_10h39.32.796,EXNAT_3_fMRI_Psychopy2023.1.3,2023.1.3,60.05177192861888,
0,0,0,0,,,,,,,,,,,#D292F3,793.5091080665588,68.02902102470398,None,None,None,667.9005007788664,text_05,81,1,1,1,Reading_Baseline_main_no_click,None,dass,,,,,MA02,001,no,647,905,124,141,193,2024-08-28_10h39.32.796,EXNAT_3_fMRI_Psychopy2023.1.3,2023.1.3,60.05177192861888,
0,0,0,0,,,,,,,,,,,#F989A2,794.1922659873962,68.71217894554138,None,None,None,632.2279237948457,text_05,82,1,1,1,Reading_Baseline_main_no_click,None,das,,,,,MA02,001,no,647,905,124,141,193,2024-08-28_10h39.32.796,EXNAT_3_fMRI_Psychopy2023.1.3,2023.1.3,60.05177192861888,
0,0,0,0,,,,,,,,,,,#2AB7EF,794.8423941135406,69.36230707168579,None,None,None,695.5703011418284,text_05,83,1,1,1,Reading_Baseline_main_no_click,None,etwas,,,,,MA02,001,no,647,905,124,141,193,2024-08-28_10h39.32.796,EXNAT_3_fMRI_Psychopy2023.1.3,2023.1.3,60.05177192861888,
0,0,0,0,,,,,,,,,,,#F989A2,795.5422899723053,70.06220293045044,None,None,None,695.5703011418284,text_05,84,1,1,1,Reading_Baseline_main_no_click,None,Neues,,,,,MA02,001,no,647,905,124,141,193,2024-08-28_10h39.32.796,EXNAT_3_fMRI_Psychopy2023.1.3,2023.1.3,60.05177192861888,
0,0,0,0,,,,,,,,,,,#F989A2,796.2422111034393,70.76212406158447,None,None,None,695.5703011418284,text_05,85,1,1,1,Reading_Baseline_main_no_click,None,"ist"",",,,,,MA02,001,no,647,905,124,141,193,2024-08-28_10h39.32.796,EXNAT_3_fMRI_Psychopy2023.1.3,2023.1.3,60.05177192861888,
0,0,0,0,,,,,,,,,,,#D292F3,796.9420170783997,71.4619300365448,None,None,None,667.9005007788664,text_05,86,1,1,1,Reading_Baseline_main_no_click,None,sagt,,,,,MA02,001,no,647,905,124,141,193,2024-08-28_10h39.32.796,EXNAT_3_fMRI_Psychopy2023.1.3,2023.1.3,60.05177192861888,
0,0,0,0,,,,,,,,,,,#88BA3F,797.625648021698,72.14556097984314,None,None,None,718.1781741842788,text_05,87,1,1,1,Reading_Baseline_main_no_click,None,Miguel,,,,,MA02,001,no,647,905,124,141,193,2024-08-28_10h39.32.796,EXNAT_3_fMRI_Psychopy2023.1.3,2023.1.3,60.05177192861888,
0,0,0,0,,,,,,,,,,,#2AB7EF,798.3587560653687,72.8786690235138,None,None,None,737.2928584828588,text_05,88,1,1,1,Reading_Baseline_main_no_click,None,Vences.,,,,,MA02,001,no,647,905,124,141,193,2024-08-28_10h39.32.796,EXNAT_3_fMRI_Psychopy2023.1.3,2023.1.3,60.05177192861888,
0,0,0,0,,,,,,,,,,,#D292F3,799.1084880828857,73.62840104103088,None,None,None,632.2279237948457,text_05,89,1,1,1,Reading_Baseline_main_no_click,None,Der,,,,,MA02,001,no,647,905,124,141,193,2024-08-28_10h39.32.796,EXNAT_3_fMRI_Psychopy2023.1.3,2023.1.3,60.05177192861888,
0,0,0,0,,,,,,,,,,,#2AB7EF,799.7585999965668,74.27851295471191,None,None,None,737.2928584828588,text_05,90,1,1,1,Reading_Baseline_main_no_click,None,Zoologe,,,,,MA02,001,no,647,905,124,141,193,2024-08-28_10h39.32.796,EXNAT_3_fMRI_Psychopy2023.1.3,2023.1.3,60.05177192861888,
0,0,0,0,,,,,,,,,,,#D292F3,800.5086040496826,75.02851700782776,None,None,None,768.4558475896913,text_05,91,1,1,1,Reading_Baseline_main_no_click,None,berichtet,,,,,MA02,001,no,647,905,124,141,193,2024-08-28_10h39.32.796,EXNAT_3_fMRI_Psychopy2023.1.3,2023.1.3,60.05177192861888,
0,0,0,0,,,,,,,,,,,#88BA3F,801.2916519641876,75.81156492233276,None,None,None,620.0,text_05,92,1,1,1,Reading_Baseline_main_no_click,None,in,,,,,MA02,001,no,647,905,124,141,193,2024-08-28_10h39.32.796,EXNAT_3_fMRI_Psychopy2023.1.3,2023.1.3,60.05177192861888,
0,0,0,0,,,,,,,,,,,#2AB7EF,801.9250199794769,76.44493293762207,None,None,None,695.5703011418284,text_05,93,1,1,1,Reading_Baseline_main_no_click,None,einem,,,,,MA02,001,no,647,905,124,141,193,2024-08-28_10h39.32.796,EXNAT_3_fMRI_Psychopy2023.1.3,2023.1.3,60.05177192861888,
0,0,0,0,,,,,,,,,,,#F989A2,802.6252191066742,77.14513206481934,None,None,None,793.339013826998,text_05,94,1,1,1,Reading_Baseline_main_no_click,None,Fachartikel,,,,,MA02,001,no,647,905,124,141,193,2024-08-28_10h39.32.796,EXNAT_3_fMRI_Psychopy2023.1.3,2023.1.3,60.05177192861888,
0,0,0,0,,,,,,,,,,,#88BA3F,803.4250710010529,77.944983959198,None,None,None,718.1781741842788,text_05,95,1,1,1,Reading_Baseline_main_no_click,None,gleich,,,,,MA02,001,no,647,905,124,141,193,2024-08-28_10h39.32.796,EXNAT_3_fMRI_Psychopy2023.1.3,2023.1.3,60.05177192861888,
0,0,0,0,,,,,,,,,,,#F989A2,804.158506155014,78.67841911315918,None,None,None,632.2279237948457,text_05,96,1,1,1,Reading_Baseline_main_no_click,None,von,,,,,MA02,001,no,647,905,124,141,193,2024-08-28_10h39.32.796,EXNAT_3_fMRI_Psychopy2023.1.3,2023.1.3,60.05177192861888,
0,0,0,0,,,,,,,,,,,#88BA3F,804.8081510066986,79.32806396484375,None,None,None,667.9005007788664,text_05,97,1,1,1,Reading_Baseline_main_no_click,None,vier,,,,,MA02,001,no,647,905,124,141,193,2024-08-28_10h39.32.796,EXNAT_3_fMRI_Psychopy2023.1.3,2023.1.3,60.05177192861888,
0,0,0,0,,,,,,,,,,,#2AB7EF,805.4916660785675,80.01157903671265,None,None,None,695.5703011418284,text_05,98,1,1,1,Reading_Baseline_main_no_click,None,neuen,,,,,MA02,001,no,647,905,124,141,193,2024-08-28_10h39.32.796,EXNAT_3_fMRI_Psychopy2023.1.3,2023.1.3,60.05177192861888,
0,0,0,0,,,,,,,,,,,#88BA3F,806.1916160583496,80.71152901649475,None,None,None,695.5703011418284,text_05,99,1,1,1,Reading_Baseline_main_no_click,None,Arten,,,,,MA02,001,no,647,905,124,141,193,2024-08-28_10h39.32.796,EXNAT_3_fMRI_Psychopy2023.1.3,2023.1.3,60.05177192861888,
0,0,0,0,,,,,,,,,,,#88BA3F,806.8910710811615,81.41098403930664,None,None,None,632.2279237948457,text_05,100,1,1,1,Reading_Baseline_main_no_click,None,von,,,,,MA02,001,no,647,905,124,141,193,2024-08-28_10h39.32.796,EXNAT_3_fMRI_Psychopy2023.1.3,2023.1.3,60.05177192861888,
0,0,0,0,,,,,,,,,,,#88BA3F,807.5416860580444,82.06159901618958,None,None,None,839.8010015577329,text_05,101,1,1,1,Reading_Baseline_main_no_click,None,Mini-Chamäleons.,,,,,MA02,001,no,647,905,124,141,193,2024-08-28_10h39.32.796,EXNAT_3_fMRI_Psychopy2023.1.3,2023.1.3,60.05177192861888,
0,0,0,0,,,,,,,,,,,#D292F3,808.3913340568542,82.91124701499939,None,None,None,667.9005007788664,text_05,102,1,1,1,Reading_Baseline_main_no_click,None,Laut,,,,,MA02,001,no,647,905,124,141,193,2024-08-28_10h39.32.796,EXNAT_3_fMRI_Psychopy2023.1.3,2023.1.3,60.05177192861888,
0,0,0,0,,,,,,,,,,,#D292F3,809.0743870735168,83.59430003166199,None,None,None,632.2279237948457,text_05,103,1,1,1,Reading_Baseline_main_no_click,None,den,,,,,MA02,001,no,647,905,124,141,193,2024-08-28_10h39.32.796,EXNAT_3_fMRI_Psychopy2023.1.3,2023.1.3,60.05177192861888,
0,0,0,0,,,,,,,,,,,#F989A2,809.7245960235596,84.24450898170471,None,None,None,768.4558475896913,text_05,104,1,1,1,Reading_Baseline_main_no_click,None,Forschern,,,,,MA02,001,no,647,905,124,141,193,2024-08-28_10h39.32.796,EXNAT_3_fMRI_Psychopy2023.1.3,2023.1.3,60.05177192861888,
0,0,0,0,,,,,,,,,,,#D292F3,810.5076560974121,85.02756905555725,None,None,None,667.9005007788664,text_05,105,1,1,1,Reading_Baseline_main_no_click,None,weiß,,,,,MA02,001,no,647,905,124,141,193,2024-08-28_10h39.32.796,EXNAT_3_fMRI_Psychopy2023.1.3,2023.1.3,60.05177192861888,
0,0,0,0,,,,,,,,,,,#2AB7EF,811.1906151771545,85.71052813529968,None,None,None,632.2279237948457,text_05,106,1,1,1,Reading_Baseline_main_no_click,None,man,,,,,MA02,001,no,647,905,124,141,193,2024-08-28_10h39.32.796,EXNAT_3_fMRI_Psychopy2023.1.3,2023.1.3,60.05177192861888,
0,0,0,0,,,,,,,,,,,#F989A2,811.8405740261078,86.36048698425293,None,None,None,632.2279237948457,text_05,107,1,1,1,Reading_Baseline_main_no_click,None,von,,,,,MA02,001,no,647,905,124,141,193,2024-08-28_10h39.32.796,EXNAT_3_fMRI_Psychopy2023.1.3,2023.1.3,60.05177192861888,
0,0,0,0,,,,,,,,,,,#2AB7EF,812.4904701709747,87.01038312911987,None,None,None,632.2279237948457,text_05,108,1,1,1,Reading_Baseline_main_no_click,None,den,,,,,MA02,001,no,647,905,124,141,193,2024-08-28_10h39.32.796,EXNAT_3_fMRI_Psychopy2023.1.3,2023.1.3,60.05177192861888,
0,0,0,0,,,,,,,,,,,#D292F3,813.1406180858612,87.66053104400635,None,None,None,718.1781741842788,text_05,109,1,1,1,Reading_Baseline_main_no_click,None,Tieren,,,,,MA02,001,no,647,905,124,141,193,2024-08-28_10h39.32.796,EXNAT_3_fMRI_Psychopy2023.1.3,2023.1.3,60.05177192861888,
0,0,0,0,,,,,,,,,,,#D292F3,813.8739321231842,88.39384508132935,None,None,None,718.1781741842788,text_05,110,1,1,1,Reading_Baseline_main_no_click,None,jedoch,,,,,MA02,001,no,647,905,124,141,193,2024-08-28_10h39.32.796,EXNAT_3_fMRI_Psychopy2023.1.3,2023.1.3,60.05177192861888,
0,0,0,0,,,,,,,,,,,#2AB7EF,814.6070110797882,89.12692403793335,None,None,None,667.9005007788664,text_05,111,1,1,1,Reading_Baseline_main_no_click,None,kaum,,,,,MA02,001,no,647,905,124,141,193,2024-08-28_10h39.32.796,EXNAT_3_fMRI_Psychopy2023.1.3,2023.1.3,60.05177192861888,
0,0,0,0,,,,,,,,,,,#D292F3,815.2904210090637,89.81033396720886,None,None,None,695.5703011418284,text_05,112,1,1,1,Reading_Baseline_main_no_click,None,"mehr,",,,,,MA02,001,no,647,905,124,141,193,2024-08-28_10h39.32.796,EXNAT_3_fMRI_Psychopy2023.1.3,2023.1.3,60.05177192861888,
0,0,0,0,,,,,,,,,,,#88BA3F,815.9902009963989,90.51011395454407,None,None,None,632.2279237948457,text_05,113,1,1,1,Reading_Baseline_main_no_click,None,als,,,,,MA02,001,no,647,905,124,141,193,2024-08-28_10h39.32.796,EXNAT_3_fMRI_Psychopy2023.1.3,2023.1.3,60.05177192861888,
0,0,0,0,,,,,,,,,,,#2AB7EF,816.6401979923248,91.16011095046997,None,None,None,667.9005007788664,text_05,114,1,1,1,Reading_Baseline_main_no_click,None,dass,,,,,MA02,001,no,647,905,124,141,193,2024-08-28_10h39.32.796,EXNAT_3_fMRI_Psychopy2023.1.3,2023.1.3,60.05177192861888,
0,0,0,0,,,,,,,,,,,#F989A2,817.3236050605774,91.84351801872253,None,None,None,620.0,text_05,115,1,1,1,Reading_Baseline_main_no_click,None,es,,,,,MA02,001,no,647,905,124,141,193,2024-08-28_10h39.32.796,EXNAT_3_fMRI_Psychopy2023.1.3,2023.1.3,60.05177192861888,
0,0,0,0,,,,,,,,,,,#F989A2,817.9566831588745,92.47659611701965,None,None,None,632.2279237948457,text_05,116,1,1,1,Reading_Baseline_main_no_click,None,sie,,,,,MA02,001,no,647,905,124,141,193,2024-08-28_10h39.32.796,EXNAT_3_fMRI_Psychopy2023.1.3,2023.1.3,60.05177192861888,
0,0,0,0,,,,,,,,,,,#2AB7EF,818.6067790985107,93.12669205665588,None,None,None,695.5703011418284,text_05,117,1,1,1,Reading_Baseline_main_no_click,None,gibt.,,,,,MA02,001,no,647,905,124,141,193,2024-08-28_10h39.32.796,EXNAT_3_fMRI_Psychopy2023.1.3,2023.1.3,60.05177192861888,
0,0,0,0,,,,,,,,,,,#F989A2,819.3065440654755,93.8264570236206,None,None,None,620.0,text_05,118,1,1,1,Reading_Baseline_main_no_click,None,Zu,,,,,MA02,001,no,647,905,124,141,193,2024-08-28_10h39.32.796,EXNAT_3_fMRI_Psychopy2023.1.3,2023.1.3,60.05177192861888,
0,0,0,0,,,,,,,,,,,#88BA3F,819.9399909973145,94.4599039554596,None,None,None,695.5703011418284,text_05,119,1,1,1,Reading_Baseline_main_no_click,None,ihrer,,,,,MA02,001,no,647,905,124,141,193,2024-08-28_10h39.32.796,EXNAT_3_fMRI_Psychopy2023.1.3,2023.1.3,60.05177192861888,
0,0,0,0,,,,,,,,,,,#F989A2,820.6400420665741,95.15995502471924,None,None,None,793.339013826998,text_05,120,1,1,1,Reading_Baseline_main_no_click,None,Lebensweise,,,,,MA02,001,no,647,905,124,141,193,2024-08-28_10h39.32.796,EXNAT_3_fMRI_Psychopy2023.1.3,2023.1.3,60.05177192861888,
0,0,0,0,,,,,,,,,,,#F989A2,821.4397280216217,95.95964097976685,None,None,None,632.2279237948457,text_05,121,1,1,1,Reading_Baseline_main_no_click,None,ist,,,,,MA02,001,no,647,905,124,141,193,2024-08-28_10h39.32.796,EXNAT_3_fMRI_Psychopy2023.1.3,2023.1.3,60.05177192861888,
0,0,0,0,,,,,,,,,,,#D292F3,822.0896940231323,96.60960698127747,None,None,None,632.2279237948457,text_05,122,1,1,1,Reading_Baseline_main_no_click,None,nur,,,,,MA02,001,no,647,905,124,141,193,2024-08-28_10h39.32.796,EXNAT_3_fMRI_Psychopy2023.1.3,2023.1.3,60.05177192861888,
0,0,0,0,,,,,,,,,,,#2AB7EF,822.7396099567413,97.25952291488647,None,None,None,667.9005007788664,text_05,123,1,1,1,Reading_Baseline_main_no_click,None,sehr,,,,,MA02,001,no,647,905,124,141,193,2024-08-28_10h39.32.796,EXNAT_3_fMRI_Psychopy2023.1.3,2023.1.3,60.05177192861888,
0,0,0,0,,,,,,,,,,,#F989A2,823.4230291843414,97.94294214248657,None,None,None,695.5703011418284,text_05,124,1,1,1,Reading_Baseline_main_no_click,None,wenig,,,,,MA02,001,no,647,905,124,141,193,2024-08-28_10h39.32.796,EXNAT_3_fMRI_Psychopy2023.1.3,2023.1.3,60.05177192861888,
0,0,0,0,,,,,,,,,,,#88BA3F,824.1232180595398,98.64313101768494,None,None,None,753.8507511682997,text_05,125,1,1,1,Reading_Baseline_main_no_click,None,bekannt.,,,,,MA02,001,no,647,905,124,141,193,2024-08-28_10h39.32.796,EXNAT_3_fMRI_Psychopy2023.1.3,2023.1.3,60.05177192861888,
0,0,0,0,,,,,,,,,,,#88BA3F,824.8896450996399,99.40955805778503,None,None,None,753.8507511682997,text_05,126,1,1,1,Reading_Baseline_main_no_click,None,Tagsüber,,,,,MA02,001,no,647,905,124,141,193,2024-08-28_10h39.32.796,EXNAT_3_fMRI_Psychopy2023.1.3,2023.1.3,60.05177192861888,
0,0,0,0,,,,,,,,,,,#F989A2,825.6561331748962,100.17604613304138,None,None,None,695.5703011418284,text_05,127,1,1,1,Reading_Baseline_main_no_click,None,leben,,,,,MA02,001,no,647,905,124,141,193,2024-08-28_10h39.32.796,EXNAT_3_fMRI_Psychopy2023.1.3,2023.1.3,60.05177192861888,
0,0,0,0,,,,,,,,,,,#D292F3,826.3559651374817,100.87587809562683,None,None,None,632.2279237948457,text_05,128,1,1,1,Reading_Baseline_main_no_click,None,die,,,,,MA02,001,no,647,905,124,141,193,2024-08-28_10h39.32.796,EXNAT_3_fMRI_Psychopy2023.1.3,2023.1.3,60.05177192861888,
0,0,0,0,,,,,,,,,,,#88BA3F,827.0061709880829,101.52608394622803,None,None,None,737.2928584828588,text_05,129,1,1,1,Reading_Baseline_main_no_click,None,kleinen,,,,,MA02,001,no,647,905,124,141,193,2024-08-28_10h39.32.796,EXNAT_3_fMRI_Psychopy2023.1.3,2023.1.3,60.05177192861888,
0,0,0,0,,,,,,,,,,,#2AB7EF,827.7560420036316,102.27595496177673,None,None,None,781.5205515312616,text_05,130,1,1,1,Reading_Baseline_main_no_click,None,Chamäleons,,,,,MA02,001,no,647,905,124,141,193,2024-08-28_10h39.32.796,EXNAT_3_fMRI_Psychopy2023.1.3,2023.1.3,60.05177192861888,
0,0,0,0,,,,,,,,,,,#F989A2,828.5558030605316,103.07571601867676,None,None,None,620.0,text_05,131,1,1,1,Reading_Baseline_main_no_click,None,am,,,,,MA02,001,no,647,905,124,141,193,2024-08-28_10h39.32.796,EXNAT_3_fMRI_Psychopy2023.1.3,2023.1.3,60.05177192861888,
0,0,0,0,,,,,,,,,,,#D292F3,829.1892111301422,103.70912408828735,None,None,None,718.1781741842788,text_05,132,1,1,1,Reading_Baseline_main_no_click,None,Boden.,,,,,MA02,001,no,647,905,124,141,193,2024-08-28_10h39.32.796,EXNAT_3_fMRI_Psychopy2023.1.3,2023.1.3,60.05177192861888,
0,0,0,0,,,,,,,,,,,#F989A2,829.9227240085602,104.44263696670532,None,None,None,667.9005007788664,text_05,133,1,1,1,Reading_Baseline_main_no_click,None,Wenn,,,,,MA02,001,no,647,905,124,141,193,2024-08-28_10h39.32.796,EXNAT_3_fMRI_Psychopy2023.1.3,2023.1.3,60.05177192861888,
0,0,0,0,,,,,,,,,,,#D292F3,830.6059789657593,105.12589192390442,None,None,None,737.2928584828588,text_05,134,1,1,1,Reading_Baseline_main_no_click,None,möglich,,,,,MA02,001,no,647,905,124,141,193,2024-08-28_10h39.32.796,EXNAT_3_fMRI_Psychopy2023.1.3,2023.1.3,60.05177192861888,
0,0,0,0,,,,,,,,,,,#F989A2,831.3557150363922,105.87562799453735,None,None,None,768.4558475896913,text_05,135,1,1,1,Reading_Baseline_main_no_click,None,verbergen,,,,,MA02,001,no,647,905,124,141,193,2024-08-28_10h39.32.796,EXNAT_3_fMRI_Psychopy2023.1.3,2023.1.3,60.05177192861888,
0,0,0,0,,,,,,,,,,,#88BA3F,832.1387560367584,106.65866899490356,None,None,None,632.2279237948457,text_05,136,1,1,1,Reading_Baseline_main_no_click,None,sie,,,,,MA02,001,no,647,905,124,141,193,2024-08-28_10h39.32.796,EXNAT_3_fMRI_Psychopy2023.1.3,2023.1.3,60.05177192861888,
0,0,0,0,,,,,,,,,,,#2AB7EF,832.7887389659882,107.3086519241333,None,None,None,667.9005007788664,text_05,137,1,1,1,Reading_Baseline_main_no_click,None,sich,,,,,MA02,001,no,647,905,124,141,193,2024-08-28_10h39.32.796,EXNAT_3_fMRI_Psychopy2023.1.3,2023.1.3,60.05177192861888,
0,0,0,0,,,,,,,,,,,#F989A2,833.4720690250397,107.99198198318481,None,None,None,695.5703011418284,text_05,138,1,1,1,Reading_Baseline_main_no_click,None,dabei,,,,,MA02,001,no,647,905,124,141,193,2024-08-28_10h39.32.796,EXNAT_3_fMRI_Psychopy2023.1.3,2023.1.3,60.05177192861888,
0,0,0,0,,,,,,,,,,,#2AB7EF,834.1720650196075,108.69197797775269,None,None,None,695.5703011418284,text_05,139,1,1,1,Reading_Baseline_main_no_click,None,unter,,,,,MA02,001,no,647,905,124,141,193,2024-08-28_10h39.32.796,EXNAT_3_fMRI_Psychopy2023.1.3,2023.1.3,60.05177192861888,
0,0,0,0,,,,,,,,,,,#D292F3,834.8719990253448,109.39191198348999,None,None,None,695.5703011418284,text_05,140,1,1,1,Reading_Baseline_main_no_click,None,einer,,,,,MA02,001,no,647,905,124,141,193,2024-08-28_10h39.32.796,EXNAT_3_fMRI_Psychopy2023.1.3,2023.1.3,60.05177192861888,
0,0,0,0,,,,,,,,,,,#2AB7EF,835.5719909667969,110.09190392494202,None,None,None,737.2928584828588,text_05,141,1,1,1,Reading_Baseline_main_no_click,None,Schicht,,,,,MA02,001,no,647,905,124,141,193,2024-08-28_10h39.32.796,EXNAT_3_fMRI_Psychopy2023.1.3,2023.1.3,60.05177192861888,
0,0,0,0,,,,,,,,,,,#D292F3,836.3221499919891,110.84206295013428,None,None,None,695.5703011418284,text_05,142,1,1,1,Reading_Baseline_main_no_click,None,Laub.,,,,,MA02,001,no,647,905,124,141,193,2024-08-28_10h39.32.796,EXNAT_3_fMRI_Psychopy2023.1.3,2023.1.3,60.05177192861888,
0,0,0,0,,,,,,,,,,,#2AB7EF,837.0222761631012,111.54218912124634,None,None,None,718.1781741842788,text_05,143,1,1,1,Reading_Baseline_main_no_click,None,Nachts,,,,,MA02,001,no,647,905,124,141,193,2024-08-28_10h39.32.796,EXNAT_3_fMRI_Psychopy2023.1.3,2023.1.3,60.05177192861888,
0,0,0,0,,,,,,,,,,,#88BA3F,837.755124092102,112.27503705024719,None,None,None,667.9005007788664,text_05,144,1,1,1,Reading_Baseline_main_no_click,None,geht,,,,,MA02,001,no,647,905,124,141,193,2024-08-28_10h39.32.796,EXNAT_3_fMRI_Psychopy2023.1.3,2023.1.3,60.05177192861888,
0,0,0,0,,,,,,,,,,,#D292F3,838.4383661746979,112.95827913284302,None,None,None,620.0,text_05,145,1,1,1,Reading_Baseline_main_no_click,None,es,,,,,MA02,001,no,647,905,124,141,193,2024-08-28_10h39.32.796,EXNAT_3_fMRI_Psychopy2023.1.3,2023.1.3,60.05177192861888,
0,0,0,0,,,,,,,,,,,#88BA3F,839.0716421604156,113.59155511856079,None,None,None,667.9005007788664,text_05,146,1,1,1,Reading_Baseline_main_no_click,None,dann,,,,,MA02,001,no,647,905,124,141,193,2024-08-28_10h39.32.796,EXNAT_3_fMRI_Psychopy2023.1.3,2023.1.3,60.05177192861888,
0,0,0,0,,,,,,,,,,,#D292F3,839.7549421787262,114.27485513687134,None,None,None,632.2279237948457,text_05,147,1,1,1,Reading_Baseline_main_no_click,None,auf,,,,,MA02,001,no,647,905,124,141,193,2024-08-28_10h39.32.796,EXNAT_3_fMRI_Psychopy2023.1.3,2023.1.3,60.05177192861888,
0,0,0,0,,,,,,,,,,,#2AB7EF,840.4051821231842,114.92509508132935,None,None,None,737.2928584828588,text_05,148,1,1,1,Reading_Baseline_main_no_click,None,niedrig,,,,,MA02,001,no,647,905,124,141,193,2024-08-28_10h39.32.796,EXNAT_3_fMRI_Psychopy2023.1.3,2023.1.3,60.05177192861888,
0,0,0,0,,,,,,,,,,,#F989A2,841.1549661159515,115.67487907409668,None,None,None,753.8507511682997,text_05,149,1,1,1,Reading_Baseline_main_no_click,None,gelegene,,,,,MA02,001,no,647,905,124,141,193,2024-08-28_10h39.32.796,EXNAT_3_fMRI_Psychopy2023.1.3,2023.1.3,60.05177192861888,
0,0,0,0,,,,,,,,,,,#F989A2,841.9218320846558,116.4417450428009,None,None,None,667.9005007788664,text_05,150,1,1,1,Reading_Baseline_main_no_click,None,Äste,,,,,MA02,001,no,647,905,124,141,193,2024-08-28_10h39.32.796,EXNAT_3_fMRI_Psychopy2023.1.3,2023.1.3,60.05177192861888,
0,0,0,0,,,,,,,,,,,#88BA3F,842.6047079563141,117.12462091445923,None,None,None,632.2279237948457,text_05,151,1,1,1,Reading_Baseline_main_no_click,None,zum,,,,,MA02,001,no,647,905,124,141,193,2024-08-28_10h39.32.796,EXNAT_3_fMRI_Psychopy2023.1.3,2023.1.3,60.05177192861888,
0,0,0,0,,,,,,,,,,,#2AB7EF,843.2550010681152,117.77491402626038,None,None,None,768.4558475896913,text_05,152,1,1,1,Reading_Baseline_main_no_click,None,Schlafen.,,,,,MA02,001,no,647,905,124,141,193,2024-08-28_10h39.32.796,EXNAT_3_fMRI_Psychopy2023.1.3,2023.1.3,60.05177192861888,
0,0,0,0,,,,,,,,,,,#F989A2,844.0383710861206,118.55828404426575,None,None,None,737.2928584828588,text_05,153,1,1,1,Reading_Baseline_main_no_click,None,Direkte,,,,,MA02,001,no,647,905,124,141,193,2024-08-28_10h39.32.796,EXNAT_3_fMRI_Psychopy2023.1.3,2023.1.3,60.05177192861888,
0,0,0,0,,,,,,,,,,,#2AB7EF,844.7880351543427,119.3079481124878,None,None,None,793.339013826998,text_05,154,1,1,1,Reading_Baseline_main_no_click,None,Fressfeinde,,,,,MA02,001,no,647,905,124,141,193,2024-08-28_10h39.32.796,EXNAT_3_fMRI_Psychopy2023.1.3,2023.1.3,60.05177192861888,
0,0,0,0,,,,,,,,,,,#88BA3F,845.5879211425781,120.10783410072327,None,None,None,695.5703011418284,text_05,155,1,1,1,Reading_Baseline_main_no_click,None,haben,,,,,MA02,001,no,647,905,124,141,193,2024-08-28_10h39.32.796,EXNAT_3_fMRI_Psychopy2023.1.3,2023.1.3,60.05177192861888,
0,0,0,0,,,,,,,,,,,#D292F3,846.2876291275024,120.80754208564758,None,None,None,632.2279237948457,text_05,156,1,1,1,Reading_Baseline_main_no_click,None,die,,,,,MA02,001,no,647,905,124,141,193,2024-08-28_10h39.32.796,EXNAT_3_fMRI_Psychopy2023.1.3,2023.1.3,60.05177192861888,
0,0,0,0,,,,,,,,,,,#2AB7EF,846.9377059936523,121.45761895179749,None,None,None,753.8507511682997,text_05,157,1,1,1,Reading_Baseline_main_no_click,None,Tierchen,,,,,MA02,001,no,647,905,124,141,193,2024-08-28_10h39.32.796,EXNAT_3_fMRI_Psychopy2023.1.3,2023.1.3,60.05177192861888,
0,0,0,0,,,,,,,,,,,#F989A2,847.7043561935425,122.22426915168762,None,None,None,781.5205515312616,text_05,158,1,1,1,Reading_Baseline_main_no_click,None,allerdings,,,,,MA02,001,no,647,905,124,141,193,2024-08-28_10h39.32.796,EXNAT_3_fMRI_Psychopy2023.1.3,2023.1.3,60.05177192861888,
0,0,0,0,,,,,,,,,,,#88BA3F,848.5042011737823,123.02411413192749,None,None,None,667.9005007788664,text_05,159,1,1,1,Reading_Baseline_main_no_click,None,wohl,,,,,MA02,001,no,647,905,124,141,193,2024-08-28_10h39.32.796,EXNAT_3_fMRI_Psychopy2023.1.3,2023.1.3,60.05177192861888,
0,0,0,0,,,,,,,,,,,#D292F3,849.1875650882721,123.70747804641724,None,None,None,667.9005007788664,text_05,160,1,1,1,Reading_Baseline_main_no_click,None,eher,,,,,MA02,001,no,647,905,124,141,193,2024-08-28_10h39.32.796,EXNAT_3_fMRI_Psychopy2023.1.3,2023.1.3,60.05177192861888,
0,0,0,0,,,,,,,,,,,#F989A2,849.8710231781006,124.39093613624573,None,None,None,718.1781741842788,text_05,161,1,1,1,Reading_Baseline_main_no_click,None,nicht.,,,,,MA02,001,no,647,905,124,141,193,2024-08-28_10h39.32.796,EXNAT_3_fMRI_Psychopy2023.1.3,2023.1.3,60.05177192861888,
0,0,0,0,,,,,,,,,,,#88BA3F,850.6043610572815,125.12427401542664,None,None,None,620.0,text_05,162,1,1,1,Reading_Baseline_main_no_click,None,Zu,,,,,MA02,001,no,647,905,124,141,193,2024-08-28_10h39.32.796,EXNAT_3_fMRI_Psychopy2023.1.3,2023.1.3,60.05177192861888,
0,0,0,0,,,,,,,,,,,#88BA3F,851.2375090122223,125.75742197036743,None,None,None,695.5703011418284,text_05,163,1,1,1,Reading_Baseline_main_no_click,None,ihrem,,,,,MA02,001,no,647,905,124,141,193,2024-08-28_10h39.32.796,EXNAT_3_fMRI_Psychopy2023.1.3,2023.1.3,60.05177192861888,
0,0,0,0,,,,,,,,,,,#F989A2,851.9378809928894,126.45779395103455,None,None,None,718.1781741842788,text_05,164,1,1,1,Reading_Baseline_main_no_click,None,"Glück,",,,,,MA02,001,no,647,905,124,141,193,2024-08-28_10h39.32.796,EXNAT_3_fMRI_Psychopy2023.1.3,2023.1.3,60.05177192861888,
0,0,0,0,,,,,,,,,,,#2AB7EF,852.6704230308533,127.19033598899841,None,None,None,620.0,text_05,165,1,1,1,Reading_Baseline_main_no_click,None,so,,,,,MA02,001,no,647,905,124,141,193,2024-08-28_10h39.32.796,EXNAT_3_fMRI_Psychopy2023.1.3,2023.1.3,60.05177192861888,
0,0,0,0,,,,,,,,,,,#F989A2,853.3036510944366,127.82356405258179,None,None,None,632.2279237948457,text_05,166,1,1,1,Reading_Baseline_main_no_click,None,die,,,,,MA02,001,no,647,905,124,141,193,2024-08-28_10h39.32.796,EXNAT_3_fMRI_Psychopy2023.1.3,2023.1.3,60.05177192861888,
0,0,0,0,,,,,,,,,,,#D292F3,853.9540150165558,128.47392797470093,None,None,None,768.4558475896913,text_05,167,1,1,1,Reading_Baseline_main_no_click,None,Forscher.,,,,,MA02,001,no,647,905,124,141,193,2024-08-28_10h39.32.796,EXNAT_3_fMRI_Psychopy2023.1.3,2023.1.3,60.05177192861888,
0,0,0,0,,,,,,,,,,,#2AB7EF,854.7370049953461,129.2569179534912,None,None,None,632.2279237948457,text_05,168,1,1,1,Reading_Baseline_main_no_click,None,Auf,,,,,MA02,001,no,647,905,124,141,193,2024-08-28_10h39.32.796,EXNAT_3_fMRI_Psychopy2023.1.3,2023.1.3,60.05177192861888,
0,0,0,0,,,,,,,,,,,#D292F3,855.3870570659637,129.9069700241089,None,None,None,737.2928584828588,text_05,169,1,1,1,Reading_Baseline_main_no_click,None,solchen,,,,,MA02,001,no,647,905,124,141,193,2024-08-28_10h39.32.796,EXNAT_3_fMRI_Psychopy2023.1.3,2023.1.3,60.05177192861888,
0,0,0,0,,,,,,,,,,,#88BA3F,856.1370151042938,130.65692806243896,None,None,None,737.2928584828588,text_05,170,1,1,1,Reading_Baseline_main_no_click,None,kleinen,,,,,MA02,001,no,647,905,124,141,193,2024-08-28_10h39.32.796,EXNAT_3_fMRI_Psychopy2023.1.3,2023.1.3,60.05177192861888,
0,0,0,0,,,,,,,,,,,#D292F3,856.8871681690216,131.40708112716675,None,None,None,718.1781741842788,text_05,171,1,1,1,Reading_Baseline_main_no_click,None,Inseln,,,,,MA02,001,no,647,905,124,141,193,2024-08-28_10h39.32.796,EXNAT_3_fMRI_Psychopy2023.1.3,2023.1.3,60.05177192861888,
0,0,0,0,,,,,,,,,,,#2AB7EF,857.6200160980225,132.1399290561676,None,None,None,667.9005007788664,text_05,172,1,1,1,Reading_Baseline_main_no_click,None,kann,,,,,MA02,001,no,647,905,124,141,193,2024-08-28_10h39.32.796,EXNAT_3_fMRI_Psychopy2023.1.3,2023.1.3,60.05177192861888,
0,0,0,0,,,,,,,,,,,#88BA3F,858.3032941818237,132.82320713996887,None,None,None,632.2279237948457,text_05,173,1,1,1,Reading_Baseline_main_no_click,None,die,,,,,MA02,001,no,647,905,124,141,193,2024-08-28_10h39.32.796,EXNAT_3_fMRI_Psychopy2023.1.3,2023.1.3,60.05177192861888,
0,0,0,0,,,,,,,,,,,#F989A2,858.9535460472107,133.47345900535583,None,None,None,781.5205515312616,text_05,174,1,1,1,Reading_Baseline_main_no_click,None,Konkurrenz,,,,,MA02,001,no,647,905,124,141,193,2024-08-28_10h39.32.796,EXNAT_3_fMRI_Psychopy2023.1.3,2023.1.3,60.05177192861888,
0,0,0,0,,,,,,,,,,,#88BA3F,859.7534561157227,134.2733690738678,None,None,None,753.8507511682997,text_05,175,1,1,1,Reading_Baseline_main_no_click,None,zwischen,,,,,MA02,001,no,647,905,124,141,193,2024-08-28_10h39.32.796,EXNAT_3_fMRI_Psychopy2023.1.3,2023.1.3,60.05177192861888,
0,0,0,0,,,,,,,,,,,#F989A2,860.5196681022644,135.03958106040955,None,None,None,632.2279237948457,text_05,176,1,1,1,Reading_Baseline_main_no_click,None,den,,,,,MA02,001,no,647,905,124,141,193,2024-08-28_10h39.32.796,EXNAT_3_fMRI_Psychopy2023.1.3,2023.1.3,60.05177192861888,
0,0,0,0,,,,,,,,,,,#F989A2,861.1698069572449,135.68971991539001,None,None,None,768.4558475896913,text_05,177,1,1,1,Reading_Baseline_main_no_click,None,Tierarten,,,,,MA02,001,no,647,905,124,141,193,2024-08-28_10h39.32.796,EXNAT_3_fMRI_Psychopy2023.1.3,2023.1.3,60.05177192861888,
0,0,0,0,,,,,,,,,,,#2AB7EF,861.9531021118164,136.47301506996155,None,None,None,737.2928584828588,text_05,178,1,1,1,Reading_Baseline_main_no_click,None,schnell,,,,,MA02,001,no,647,905,124,141,193,2024-08-28_10h39.32.796,EXNAT_3_fMRI_Psychopy2023.1.3,2023.1.3,60.05177192861888,
0,0,0,0,,,,,,,,,,,#2AB7EF,862.7028570175171,137.22276997566223,None,None,None,667.9005007788664,text_05,179,1,1,1,Reading_Baseline_main_no_click,None,sehr,,,,,MA02,001,no,647,905,124,141,193,2024-08-28_10h39.32.796,EXNAT_3_fMRI_Psychopy2023.1.3,2023.1.3,60.05177192861888,
0,0,0,0,,,,,,,,,,,#D292F3,863.3861141204834,137.90602707862854,None,None,None,667.9005007788664,text_05,180,1,1,1,Reading_Baseline_main_no_click,None,groß,,,,,MA02,001,no,647,905,124,141,193,2024-08-28_10h39.32.796,EXNAT_3_fMRI_Psychopy2023.1.3,2023.1.3,60.05177192861888,
0,0,0,0,,,,,,,,,,,#2AB7EF,864.0698461532593,138.58975911140442,None,None,None,737.2928584828588,text_05,181,1,1,1,Reading_Baseline_main_no_click,None,werden.,,,,,MA02,001,no,647,905,124,141,193,2024-08-28_10h39.32.796,EXNAT_3_fMRI_Psychopy2023.1.3,2023.1.3,60.05177192861888,
0,0,0,0,,,,,,,,,,,#88BA3F,864.8193700313568,139.33928298950195,None,None,None,667.9005007788664,text_05,182,1,1,1,Reading_Baseline_main_no_click,None,Auch,,,,,MA02,001,no,647,905,124,141,193,2024-08-28_10h39.32.796,EXNAT_3_fMRI_Psychopy2023.1.3,2023.1.3,60.05177192861888,
0,0,0,0,,,,,,,,,,,#F989A2,865.5026850700378,140.02259802818298,None,None,None,632.2279237948457,text_05,183,1,1,1,Reading_Baseline_main_no_click,None,die,,,,,MA02,001,no,647,905,124,141,193,2024-08-28_10h39.32.796,EXNAT_3_fMRI_Psychopy2023.1.3,2023.1.3,60.05177192861888,
0,0,0,0,,,,,,,,,,,#88BA3F,866.1527540683746,140.67266702651978,None,None,None,737.2928584828588,text_05,184,1,1,1,Reading_Baseline_main_no_click,None,anderen,,,,,MA02,001,no,647,905,124,141,193,2024-08-28_10h39.32.796,EXNAT_3_fMRI_Psychopy2023.1.3,2023.1.3,60.05177192861888,
0,0,0,0,,,,,,,,,,,#D292F3,866.9026501178741,141.4225630760193,None,None,None,695.5703011418284,text_05,185,1,1,1,Reading_Baseline_main_no_click,None,neuen,,,,,MA02,001,no,647,905,124,141,193,2024-08-28_10h39.32.796,EXNAT_3_fMRI_Psychopy2023.1.3,2023.1.3,60.05177192861888,
0,0,0,0,,,,,,,,,,,#2AB7EF,867.6027610301971,142.12267398834229,None,None,None,831.798224936674,text_05,186,1,1,1,Reading_Baseline_main_no_click,None,Chamäleon-Arten,,,,,MA02,001,no,647,905,124,141,193,2024-08-28_10h39.32.796,EXNAT_3_fMRI_Psychopy2023.1.3,2023.1.3,60.05177192861888,
0,0,0,0,,,,,,,,,,,#D292F3,868.4525871276855,142.9725000858307,None,None,None,768.4558475896913,text_05,187,1,1,1,Reading_Baseline_main_no_click,None,besiedeln,,,,,MA02,001,no,647,905,124,141,193,2024-08-28_10h39.32.796,EXNAT_3_fMRI_Psychopy2023.1.3,2023.1.3,60.05177192861888,
0,0,0,0,,,,,,,,,,,#2AB7EF,869.2356040477753,143.7555170059204,None,None,None,632.2279237948457,text_05,188,1,1,1,Reading_Baseline_main_no_click,None,nur,,,,,MA02,001,no,647,905,124,141,193,2024-08-28_10h39.32.796,EXNAT_3_fMRI_Psychopy2023.1.3,2023.1.3,60.05177192861888,
0,0,0,0,,,,,,,,,,,#F989A2,869.8856830596924,144.40559601783752,None,None,None,718.1781741842788,text_05,189,1,1,1,Reading_Baseline_main_no_click,None,kleine,,,,,MA02,001,no,647,905,124,141,193,2024-08-28_10h39.32.796,EXNAT_3_fMRI_Psychopy2023.1.3,2023.1.3,60.05177192861888,
0,0,0,0,,,,,,,,,,,#F989A2,870.6192140579224,145.1391270160675,None,None,None,737.2928584828588,text_05,190,1,1,1,Reading_Baseline_main_no_click,None,Gebiete,,,,,MA02,001,no,647,905,124,141,193,2024-08-28_10h39.32.796,EXNAT_3_fMRI_Psychopy2023.1.3,2023.1.3,60.05177192861888,
0,0,0,0,,,,,,,,,,,#88BA3F,871.3688790798187,145.88879203796387,None,None,None,632.2279237948457,text_05,191,1,1,1,Reading_Baseline_main_no_click,None,auf,,,,,MA02,001,no,647,905,124,141,193,2024-08-28_10h39.32.796,EXNAT_3_fMRI_Psychopy2023.1.3,2023.1.3,60.05177192861888,
0,0,0,0,,,,,,,,,,,#2AB7EF,872.0188570022583,146.53876996040344,None,None,None,793.339013826998,text_05,192,1,1,1,Reading_Baseline_main_no_click,None,Madagaskar.,,,,,MA02,001,no,647,905,124,141,193,2024-08-28_10h39.32.796,EXNAT_3_fMRI_Psychopy2023.1.3,2023.1.3,60.05177192861888,
0,0,0,0,,,,,,,,,,,#2AB7EF,872.8186521530151,147.33856511116028,None,None,None,695.5703011418284,text_05,193,1,1,1,Reading_Baseline_main_no_click,None,Durch,,,,,MA02,001,no,647,905,124,141,193,2024-08-28_10h39.32.796,EXNAT_3_fMRI_Psychopy2023.1.3,2023.1.3,60.05177192861888,
0,0,0,0,,,,,,,,,,,#88BA3F,873.5185701847076,148.03848314285278,None,None,None,632.2279237948457,text_05,194,1,1,1,Reading_Baseline_main_no_click,None,die,,,,,MA02,001,no,647,905,124,141,193,2024-08-28_10h39.32.796,EXNAT_3_fMRI_Psychopy2023.1.3,2023.1.3,60.05177192861888,
0,0,0,0,,,,,,,,,,,#D292F3,874.1688120365143,148.68872499465942,None,None,None,781.5205515312616,text_05,195,1,1,1,Reading_Baseline_main_no_click,None,Zerstörung,,,,,MA02,001,no,647,905,124,141,193,2024-08-28_10h39.32.796,EXNAT_3_fMRI_Psychopy2023.1.3,2023.1.3,60.05177192861888,
0,0,0,0,,,,,,,,,,,#88BA3F,874.9686770439148,149.48859000205994,None,None,None,695.5703011418284,text_05,196,1,1,1,Reading_Baseline_main_no_click,None,ihres,,,,,MA02,001,no,647,905,124,141,193,2024-08-28_10h39.32.796,EXNAT_3_fMRI_Psychopy2023.1.3,2023.1.3,60.05177192861888,
0,0,0,0,,,,,,,,,,,#F989A2,875.668704032898,150.1886169910431,None,None,None,793.339013826998,text_05,197,1,1,1,Reading_Baseline_main_no_click,None,Lebensraums,,,,,MA02,001,no,647,905,124,141,193,2024-08-28_10h39.32.796,EXNAT_3_fMRI_Psychopy2023.1.3,2023.1.3,60.05177192861888,
0,0,0,0,,,,,,,,,,,#D292F3,876.4683811664581,150.98829412460327,None,None,None,667.9005007788664,text_05,198,1,1,1,Reading_Baseline_main_no_click,None,sind,,,,,MA02,001,no,647,905,124,141,193,2024-08-28_10h39.32.796,EXNAT_3_fMRI_Psychopy2023.1.3,2023.1.3,60.05177192861888,
0,0,0,0,,,,,,,,,,,#88BA3F,877.1518449783325,151.67175793647766,None,None,None,632.2279237948457,text_05,199,1,1,1,Reading_Baseline_main_no_click,None,sie,,,,,MA02,001,no,647,905,124,141,193,2024-08-28_10h39.32.796,EXNAT_3_fMRI_Psychopy2023.1.3,2023.1.3,60.05177192861888,
0,0,0,0,,,,,,,,,,,#2AB7EF,877.8019089698792,152.3218219280243,None,None,None,718.1781741842788,text_05,200,1,1,1,Reading_Baseline_main_no_click,None,jedoch,,,,,MA02,001,no,647,905,124,141,193,2024-08-28_10h39.32.796,EXNAT_3_fMRI_Psychopy2023.1.3,2023.1.3,60.05177192861888,
0,0,0,0,,,,,,,,,,,#88BA3F,878.5350661277771,153.05497908592224,None,None,None,768.4558475896913,text_05,201,1,1,1,Reading_Baseline_main_no_click,None,besonders,,,,,MA02,001,no,647,905,124,141,193,2024-08-28_10h39.32.796,EXNAT_3_fMRI_Psychopy2023.1.3,2023.1.3,60.05177192861888,
0,0,0,0,,,,,,,,,,,#F989A2,879.3182730674744,153.8381860256195,None,None,None,753.8507511682997,text_05,202,1,1,1,Reading_Baseline_main_no_click,None,bedroht.,,,,,MA02,001,no,647,905,124,141,193,2024-08-28_10h39.32.796,EXNAT_3_fMRI_Psychopy2023.1.3,2023.1.3,60.05177192861888,
0,0,0,0,,,,,,,,,,,#2AB7EF,880.0851101875305,154.60502314567566,None,None,None,667.9005007788664,text_05,203,1,1,1,Reading_Baseline_main_no_click,None,Rund,,,,,MA02,001,no,647,905,124,141,193,2024-08-28_10h39.32.796,EXNAT_3_fMRI_Psychopy2023.1.3,2023.1.3,60.05177192861888,
0,0,0,0,,,,,,,,,,,#F989A2,880.7687251567841,155.2886381149292,None,None,None,620.0,text_05,204,1,1,1,Reading_Baseline_main_no_click,None,40,,,,,MA02,001,no,647,905,124,141,193,2024-08-28_10h39.32.796,EXNAT_3_fMRI_Psychopy2023.1.3,2023.1.3,60.05177192861888,
0,0,0,0,,,,,,,,,,,#2AB7EF,881.4020371437073,155.92195010185242,None,None,None,737.2928584828588,text_05,205,1,1,1,Reading_Baseline_main_no_click,None,Prozent,,,,,MA02,001,no,647,905,124,141,193,2024-08-28_10h39.32.796,EXNAT_3_fMRI_Psychopy2023.1.3,2023.1.3,60.05177192861888,
0,0,0,0,,,,,,,,,,,#88BA3F,882.1512069702148,156.67111992835999,None,None,None,632.2279237948457,text_05,206,1,1,1,Reading_Baseline_main_no_click,None,der,,,,,MA02,001,no,647,905,124,141,193,2024-08-28_10h39.32.796,EXNAT_3_fMRI_Psychopy2023.1.3,2023.1.3,60.05177192861888,
0,0,0,0,,,,,,,,,,,#2AB7EF,882.8016481399536,157.32156109809875,None,None,None,831.798224936674,text_05,207,1,1,1,Reading_Baseline_main_no_click,None,Reptilien-Arten,,,,,MA02,001,no,647,905,124,141,193,2024-08-28_10h39.32.796,EXNAT_3_fMRI_Psychopy2023.1.3,2023.1.3,60.05177192861888,
0,0,0,0,,,,,,,,,,,#D292F3,883.6511330604553,158.17104601860046,None,None,None,632.2279237948457,text_05,208,1,1,1,Reading_Baseline_main_no_click,None,auf,,,,,MA02,001,no,647,905,124,141,193,2024-08-28_10h39.32.796,EXNAT_3_fMRI_Psychopy2023.1.3,2023.1.3,60.05177192861888,
0,0,0,0,,,,,,,,,,,#F989A2,884.3011500835419,158.821063041687,None,None,None,781.5205515312616,text_05,209,1,1,1,Reading_Baseline_main_no_click,None,Madagaskar,,,,,MA02,001,no,647,905,124,141,193,2024-08-28_10h39.32.796,EXNAT_3_fMRI_Psychopy2023.1.3,2023.1.3,60.05177192861888,
0,0,0,0,,,,,,,,,,,#D292F3,885.101124048233,159.62103700637817,None,None,None,718.1781741842788,text_05,210,1,1,1,Reading_Baseline_main_no_click,None,gelten,,,,,MA02,001,no,647,905,124,141,193,2024-08-28_10h39.32.796,EXNAT_3_fMRI_Psychopy2023.1.3,2023.1.3,60.05177192861888,
0,0,0,0,,,,,,,,,,,#88BA3F,885.8343021869659,160.35421514511108,None,None,None,804.128424573712,text_05,211,1,1,1,Reading_Baseline_main_no_click,None,mittlerweile,,,,,MA02,001,no,647,905,124,141,193,2024-08-28_10h39.32.796,EXNAT_3_fMRI_Psychopy2023.1.3,2023.1.3,60.05177192861888,
0,0,0,0,,,,,,,,,,,#F989A2,886.650964975357,161.1708779335022,None,None,None,632.2279237948457,text_05,212,1,1,1,Reading_Baseline_main_no_click,None,als,,,,,MA02,001,no,647,905,124,141,193,2024-08-28_10h39.32.796,EXNAT_3_fMRI_Psychopy2023.1.3,2023.1.3,60.05177192861888,
0,0,0,0,,,,,,,,,,,#88BA3F,887.300950050354,161.82086300849915,None,None,None,781.5205515312616,text_05,213,1,1,1,Reading_Baseline_main_no_click,None,gefährdet.,,,,,MA02,001,no,647,905,124,141,193,2024-08-28_10h39.32.796,EXNAT_3_fMRI_Psychopy2023.1.3,2023.1.3,60.05177192861888,
0,0,0,0,,,,,,,,,,,#2AB7EF,888.100634098053,162.62054705619812,None,None,None,632.2279237948457,text_05,214,1,1,1,Reading_Baseline_main_no_click,None,Die,,,,,MA02,001,no,647,905,124,141,193,2024-08-28_10h39.32.796,EXNAT_3_fMRI_Psychopy2023.1.3,2023.1.3,60.05177192861888,
0,0,0,0,,,,,,,,,,,#D292F3,888.7507309913635,163.27064394950867,None,None,None,753.8507511682997,text_05,215,1,1,1,Reading_Baseline_main_no_click,None,Forscher,,,,,MA02,001,no,647,905,124,141,193,2024-08-28_10h39.32.796,EXNAT_3_fMRI_Psychopy2023.1.3,2023.1.3,60.05177192861888,
0,0,0,0,,,,,,,,,,,#F989A2,889.5176141262054,164.0375270843506,None,None,None,793.339013826998,text_05,216,1,1,1,Reading_Baseline_main_no_click,None,"befürchten,",,,,,MA02,001,no,647,905,124,141,193,2024-08-28_10h39.32.796,EXNAT_3_fMRI_Psychopy2023.1.3,2023.1.3,60.05177192861888,
0,0,0,0,,,,,,,,,,,#D292F3,890.3170809745789,164.836993932724,None,None,None,667.9005007788664,text_05,217,1,1,1,Reading_Baseline_main_no_click,None,dass,,,,,MA02,001,no,647,905,124,141,193,2024-08-28_10h39.32.796,EXNAT_3_fMRI_Psychopy2023.1.3,2023.1.3,60.05177192861888,
0,0,0,0,,,,,,,,,,,#D292F3,891.0003430843353,165.52025604248047,None,None,None,667.9005007788664,text_05,218,1,1,1,Reading_Baseline_main_no_click,None,auch,,,,,MA02,001,no,647,905,124,141,193,2024-08-28_10h39.32.796,EXNAT_3_fMRI_Psychopy2023.1.3,2023.1.3,60.05177192861888,
0,0,0,0,,,,,,,,,,,#2AB7EF,891.6838271617889,166.20374011993408,None,None,None,768.4558475896913,text_05,219,1,1,1,Reading_Baseline_main_no_click,None,Brookesia,,,,,MA02,001,no,647,905,124,141,193,2024-08-28_10h39.32.796,EXNAT_3_fMRI_Psychopy2023.1.3,2023.1.3,60.05177192861888,
0,0,0,0,,,,,,,,,,,#D292F3,892.4670100212097,166.98692297935486,None,None,None,753.8507511682997,text_05,220,1,1,1,Reading_Baseline_main_no_click,None,"tristis,",,,,,MA02,001,no,647,905,124,141,193,2024-08-28_10h39.32.796,EXNAT_3_fMRI_Psychopy2023.1.3,2023.1.3,60.05177192861888,
0,0,0,0,,,,,,,,,,,#88BA3F,893.2334990501404,167.75341200828552,None,None,None,667.9005007788664,text_05,221,1,1,1,Reading_Baseline_main_no_click,None,eine,,,,,MA02,001,no,647,905,124,141,193,2024-08-28_10h39.32.796,EXNAT_3_fMRI_Psychopy2023.1.3,2023.1.3,60.05177192861888,
0,0,0,0,,,,,,,,,,,#F989A2,893.9169101715088,168.43682312965393,None,None,None,737.2928584828588,text_05,222,1,1,1,Reading_Baseline_main_no_click,None,weitere,,,,,MA02,001,no,647,905,124,141,193,2024-08-28_10h39.32.796,EXNAT_3_fMRI_Psychopy2023.1.3,2023.1.3,60.05177192861888,
0,0,0,0,,,,,,,,,,,#88BA3F,894.6667430400848,169.18665599822998,None,None,None,632.2279237948457,text_05,223,1,1,1,Reading_Baseline_main_no_click,None,neu,,,,,MA02,001,no,647,905,124,141,193,2024-08-28_10h39.32.796,EXNAT_3_fMRI_Psychopy2023.1.3,2023.1.3,60.05177192861888,
0,0,0,0,,,,,,,,,,,#2AB7EF,895.3168361186981,169.83674907684326,None,None,None,768.4558475896913,text_05,224,1,1,1,Reading_Baseline_main_no_click,None,entdeckte,,,,,MA02,001,no,647,905,124,141,193,2024-08-28_10h39.32.796,EXNAT_3_fMRI_Psychopy2023.1.3,2023.1.3,60.05177192861888,
0,0,0,0,,,,,,,,,,,#D292F3,896.099925994873,170.6198389530182,None,None,None,667.9005007788664,text_05,225,1,1,1,Reading_Baseline_main_no_click,None,"Art,",,,,,MA02,001,no,647,905,124,141,193,2024-08-28_10h39.32.796,EXNAT_3_fMRI_Psychopy2023.1.3,2023.1.3,60.05177192861888,
0,0,0,0,,,,,,,,,,,#2AB7EF,896.7835421562195,171.30345511436462,None,None,None,695.5703011418284,text_05,226,1,1,1,Reading_Baseline_main_no_click,None,einer,,,,,MA02,001,no,647,905,124,141,193,2024-08-28_10h39.32.796,EXNAT_3_fMRI_Psychopy2023.1.3,2023.1.3,60.05177192861888,
0,0,0,0,,,,,,,,,,,#D292F3,897.4833610057831,172.00327396392822,None,None,None,781.5205515312616,text_05,227,1,1,1,Reading_Baseline_main_no_click,None,ungewissen,,,,,MA02,001,no,647,905,124,141,193,2024-08-28_10h39.32.796,EXNAT_3_fMRI_Psychopy2023.1.3,2023.1.3,60.05177192861888,
0,0,0,0,,,,,,,,,,,#88BA3F,898.2831950187683,172.80310797691345,None,None,None,737.2928584828588,text_05,228,1,1,1,Reading_Baseline_main_no_click,None,Zukunft,,,,,MA02,001,no,647,905,124,141,193,2024-08-28_10h39.32.796,EXNAT_3_fMRI_Psychopy2023.1.3,2023.1.3,60.05177192861888,
0,0,0,0,,,,,,,,,,,#2AB7EF,899.0331921577454,173.5531051158905,None,None,None,753.8507511682997,text_05,229,1,1,1,Reading_Baseline_main_no_click,None,entgegen,,,,,MA02,001,no,647,905,124,141,193,2024-08-28_10h39.32.796,EXNAT_3_fMRI_Psychopy2023.1.3,2023.1.3,60.05177192861888,
0,0,0,0,,,,,,,,,,,#D292F3,899.7997870445251,174.3197000026703,None,None,None,718.1781741842788,text_05,230,1,1,1,Reading_Baseline_main_no_click,None,sieht.,,,,,MA02,001,no,647,905,124,141,193,2024-08-28_10h39.32.796,EXNAT_3_fMRI_Psychopy2023.1.3,2023.1.3,60.05177192861888,
0,0,0,0,,,,,,,,,,,#2AB7EF,900.5329029560089,175.05281591415405,None,None,None,667.9005007788664,text_05,231,1,1,1,Reading_Baseline_main_no_click,None,Zwar,,,,,MA02,001,no,647,905,124,141,193,2024-08-28_10h39.32.796,EXNAT_3_fMRI_Psychopy2023.1.3,2023.1.3,60.05177192861888,
0,0,0,0,,,,,,,,,,,#88BA3F,901.2162330150604,175.73614597320557,None,None,None,632.2279237948457,text_05,232,1,1,1,Reading_Baseline_main_no_click,None,ist,,,,,MA02,001,no,647,905,124,141,193,2024-08-28_10h39.32.796,EXNAT_3_fMRI_Psychopy2023.1.3,2023.1.3,60.05177192861888,
0,0,0,0,,,,,,,,,,,#D292F3,901.8661811351776,176.38609409332275,None,None,None,632.2279237948457,text_05,233,1,1,1,Reading_Baseline_main_no_click,None,der,,,,,MA02,001,no,647,905,124,141,193,2024-08-28_10h39.32.796,EXNAT_3_fMRI_Psychopy2023.1.3,2023.1.3,60.05177192861888,
0,0,0,0,,,,,,,,,,,#F989A2,902.5164051055908,177.03631806373596,None,None,None,781.5205515312616,text_05,234,1,1,1,Reading_Baseline_main_no_click,None,Lebensraum,,,,,MA02,001,no,647,905,124,141,193,2024-08-28_10h39.32.796,EXNAT_3_fMRI_Psychopy2023.1.3,2023.1.3,60.05177192861888,
0,0,0,0,,,,,,,,,,,#D292F3,903.3162910938263,177.83620405197144,None,None,None,632.2279237948457,text_05,235,1,1,1,Reading_Baseline_main_no_click,None,des,,,,,MA02,001,no,647,905,124,141,193,2024-08-28_10h39.32.796,EXNAT_3_fMRI_Psychopy2023.1.3,2023.1.3,60.05177192861888,
0,0,0,0,,,,,,,,,,,#F989A2,903.9663300514221,178.48624300956726,None,None,None,781.5205515312616,text_05,236,1,1,1,Reading_Baseline_main_no_click,None,Chamäleons,,,,,MA02,001,no,647,905,124,141,193,2024-08-28_10h39.32.796,EXNAT_3_fMRI_Psychopy2023.1.3,2023.1.3,60.05177192861888,
0,0,0,0,,,,,,,,,,,#2AB7EF,904.7659511566162,179.28586411476135,None,None,None,632.2279237948457,text_05,237,1,1,1,Reading_Baseline_main_no_click,None,vor,,,,,MA02,001,no,647,905,124,141,193,2024-08-28_10h39.32.796,EXNAT_3_fMRI_Psychopy2023.1.3,2023.1.3,60.05177192861888,
0,0,0,0,,,,,,,,,,,#88BA3F,905.4158971309662,179.93581008911133,None,None,None,737.2928584828588,text_05,238,1,1,1,Reading_Baseline_main_no_click,None,wenigen,,,,,MA02,001,no,647,905,124,141,193,2024-08-28_10h39.32.796,EXNAT_3_fMRI_Psychopy2023.1.3,2023.1.3,60.05177192861888,
0,0,0,0,,,,,,,,,,,#2AB7EF,906.1664061546326,180.6863191127777,None,None,None,718.1781741842788,text_05,239,1,1,1,Reading_Baseline_main_no_click,None,Jahren,,,,,MA02,001,no,647,905,124,141,193,2024-08-28_10h39.32.796,EXNAT_3_fMRI_Psychopy2023.1.3,2023.1.3,60.05177192861888,
0,0,0,0,,,,,,,,,,,#D292F3,906.8991701602936,181.41908311843872,None,None,None,695.5703011418284,text_05,240,1,1,1,Reading_Baseline_main_no_click,None,unter,,,,,MA02,001,no,647,905,124,141,193,2024-08-28_10h39.32.796,EXNAT_3_fMRI_Psychopy2023.1.3,2023.1.3,60.05177192861888,
0,0,0,0,,,,,,,,,,,#88BA3F,907.5990600585938,182.1189730167389,None,None,None,718.1781741842788,text_05,241,1,1,1,Reading_Baseline_main_no_click,None,Schutz,,,,,MA02,001,no,647,905,124,141,193,2024-08-28_10h39.32.796,EXNAT_3_fMRI_Psychopy2023.1.3,2023.1.3,60.05177192861888,
0,0,0,0,,,,,,,,,,,#F989A2,908.3323900699615,182.8523030281067,None,None,None,753.8507511682997,text_05,242,1,1,1,Reading_Baseline_main_no_click,None,gestellt,,,,,MA02,001,no,647,905,124,141,193,2024-08-28_10h39.32.796,EXNAT_3_fMRI_Psychopy2023.1.3,2023.1.3,60.05177192861888,
0,0,0,0,,,,,,,,,,,#88BA3F,909.0991971492767,183.61911010742188,None,None,None,737.2928584828588,text_05,243,1,1,1,Reading_Baseline_main_no_click,None,"worden,",,,,,MA02,001,no,647,905,124,141,193,2024-08-28_10h39.32.796,EXNAT_3_fMRI_Psychopy2023.1.3,2023.1.3,60.05177192861888,
0,0,0,0,,,,,,,,,,,#2AB7EF,909.8488039970398,184.36871695518494,None,None,None,667.9005007788664,text_05,244,1,1,1,Reading_Baseline_main_no_click,None,doch,,,,,MA02,001,no,647,905,124,141,193,2024-08-28_10h39.32.796,EXNAT_3_fMRI_Psychopy2023.1.3,2023.1.3,60.05177192861888,
0,0,0,0,,,,,,,,,,,#F989A2,910.531984090805,185.0518970489502,None,None,None,632.2279237948457,text_05,245,1,1,1,Reading_Baseline_main_no_click,None,die,,,,,MA02,001,no,647,905,124,141,193,2024-08-28_10h39.32.796,EXNAT_3_fMRI_Psychopy2023.1.3,2023.1.3,60.05177192861888,
0,0,0,0,,,,,,,,,,,#D292F3,911.1822299957275,185.70214295387268,None,None,None,768.4558475896913,text_05,246,1,1,1,Reading_Baseline_main_no_click,None,Abholzung,,,,,MA02,001,no,647,905,124,141,193,2024-08-28_10h39.32.796,EXNAT_3_fMRI_Psychopy2023.1.3,2023.1.3,60.05177192861888,
0,0,0,0,,,,,,,,,,,#88BA3F,911.96524310112,186.48515605926514,None,None,None,632.2279237948457,text_05,247,1,1,1,Reading_Baseline_main_no_click,None,des,,,,,MA02,001,no,647,905,124,141,193,2024-08-28_10h39.32.796,EXNAT_3_fMRI_Psychopy2023.1.3,2023.1.3,60.05177192861888,
0,0,0,0,,,,,,,,,,,#F989A2,912.6153290271759,187.13524198532104,None,None,None,737.2928584828588,text_05,248,1,1,1,Reading_Baseline_main_no_click,None,Gebiets,,,,,MA02,001,no,647,905,124,141,193,2024-08-28_10h39.32.796,EXNAT_3_fMRI_Psychopy2023.1.3,2023.1.3,60.05177192861888,
0,0,0,0,,,,,,,,,,,#2AB7EF,913.3650469779968,187.88495993614197,None,None,None,632.2279237948457,text_05,249,1,1,1,Reading_Baseline_main_no_click,None,hat,,,,,MA02,001,no,647,905,124,141,193,2024-08-28_10h39.32.796,EXNAT_3_fMRI_Psychopy2023.1.3,2023.1.3,60.05177192861888,
0,0,0,0,,,,,,,,,,,#2AB7EF,914.0151391029358,188.53505206108093,None,None,None,737.2928584828588,text_05,250,1,1,1,Reading_Baseline_main_no_click,None,seitdem,,,,,MA02,001,no,647,905,124,141,193,2024-08-28_10h39.32.796,EXNAT_3_fMRI_Psychopy2023.1.3,2023.1.3,60.05177192861888,
0,0,0,0,,,,,,,,,,,#D292F3,914.7651221752167,189.28503513336182,None,None,None,718.1781741842788,text_05,251,1,1,1,Reading_Baseline_main_no_click,None,leider,,,,,MA02,001,no,647,905,124,141,193,2024-08-28_10h39.32.796,EXNAT_3_fMRI_Psychopy2023.1.3,2023.1.3,60.05177192861888,
0,0,0,0,,,,,,,,,,,#88BA3F,915.4985899925232,190.01850295066833,None,None,None,695.5703011418284,text_05,252,1,1,1,Reading_Baseline_main_no_click,None,sogar,,,,,MA02,001,no,647,905,124,141,193,2024-08-28_10h39.32.796,EXNAT_3_fMRI_Psychopy2023.1.3,2023.1.3,60.05177192861888,
0,0,0,0,,,,,,,,,,,#2AB7EF,916.198203086853,190.71811604499817,None,None,None,667.9005007788664,text_05,253,1,1,1,Reading_Baseline_main_no_click,None,noch,,,,,MA02,001,no,647,905,124,141,193,2024-08-28_10h39.32.796,EXNAT_3_fMRI_Psychopy2023.1.3,2023.1.3,60.05177192861888,
0,0,0,0,,,,,,,,,,,#2AB7EF,916.8817570209503,191.40166997909546,None,None,None,793.339013826998,text_05,254,1,1,1,Reading_Baseline_main_no_click,None,zugenommen.,,,,,MA02,001,no,647,905,124,141,193,2024-08-28_10h39.32.796,EXNAT_3_fMRI_Psychopy2023.1.3,2023.1.3,60.05177192861888,
0,0,0,0,,,,,,,,,,,#D292F3,917.6813910007477,192.20130395889282,None,None,None,632.2279237948457,text_05,255,1,1,1,Reading_Baseline_main_no_click,None,Mit,,,,,MA02,001,no,647,905,124,141,193,2024-08-28_10h39.32.796,EXNAT_3_fMRI_Psychopy2023.1.3,2023.1.3,60.05177192861888,
0,0,0,0,,,,,,,,,,,#F989A2,918.3312730789185,192.8511860370636,None,None,None,632.2279237948457,text_05,256,1,1,1,Reading_Baseline_main_no_click,None,der,,,,,MA02,001,no,647,905,124,141,193,2024-08-28_10h39.32.796,EXNAT_3_fMRI_Psychopy2023.1.3,2023.1.3,60.05177192861888,
0,0,0,0,,,,,,,,,,,#D292F3,918.9812111854553,193.50112414360046,None,None,None,667.9005007788664,text_05,257,1,1,1,Reading_Baseline_main_no_click,None,Wahl,,,,,MA02,001,no,647,905,124,141,193,2024-08-28_10h39.32.796,EXNAT_3_fMRI_Psychopy2023.1.3,2023.1.3,60.05177192861888,
0,0,0,0,,,,,,,,,,,#F989A2,919.6644489765167,194.18436193466187,None,None,None,632.2279237948457,text_05,258,1,1,1,Reading_Baseline_main_no_click,None,der,,,,,MA02,001,no,647,905,124,141,193,2024-08-28_10h39.32.796,EXNAT_3_fMRI_Psychopy2023.1.3,2023.1.3,60.05177192861888,
0,0,0,0,,,,,,,,,,,#88BA3F,920.3156299591064,194.8355429172516,None,None,None,695.5703011418284,text_05,259,1,1,1,Reading_Baseline_main_no_click,None,Namen,,,,,MA02,001,no,647,905,124,141,193,2024-08-28_10h39.32.796,EXNAT_3_fMRI_Psychopy2023.1.3,2023.1.3,60.05177192861888,
0,0,0,0,,,,,,,,,,,#88BA3F,921.0142421722412,195.53415513038635,None,None,None,632.2279237948457,text_05,260,1,1,1,Reading_Baseline_main_no_click,None,der,,,,,MA02,001,no,647,905,124,141,193,2024-08-28_10h39.32.796,EXNAT_3_fMRI_Psychopy2023.1.3,2023.1.3,60.05177192861888,
0,0,0,0,,,,,,,,,,,#2AB7EF,921.6642031669617,196.1841161251068,None,None,None,632.2279237948457,text_05,261,1,1,1,Reading_Baseline_main_no_click,None,neu,,,,,MA02,001,no,647,905,124,141,193,2024-08-28_10h39.32.796,EXNAT_3_fMRI_Psychopy2023.1.3,2023.1.3,60.05177192861888,
0,0,0,0,,,,,,,,,,,#D292F3,922.3145930767059,196.83450603485107,None,None,None,781.5205515312616,text_05,262,1,1,1,Reading_Baseline_main_no_click,None,entdeckten,,,,,MA02,001,no,647,905,124,141,193,2024-08-28_10h39.32.796,EXNAT_3_fMRI_Psychopy2023.1.3,2023.1.3,60.05177192861888,
0,0,0,0,,,,,,,,,,,#F989A2,923.1143591403961,197.63427209854126,None,None,None,831.798224936674,text_05,263,1,1,1,Reading_Baseline_main_no_click,None,Chamäleon-Arten,,,,,MA02,001,no,647,905,124,141,193,2024-08-28_10h39.32.796,EXNAT_3_fMRI_Psychopy2023.1.3,2023.1.3,60.05177192861888,
0,0,0,0,,,,,,,,,,,#D292F3,923.9641170501709,198.48403000831604,None,None,None,718.1781741842788,text_05,264,1,1,1,Reading_Baseline_main_no_click,None,wollen,,,,,MA02,001,no,647,905,124,141,193,2024-08-28_10h39.32.796,EXNAT_3_fMRI_Psychopy2023.1.3,2023.1.3,60.05177192861888,
0,0,0,0,,,,,,,,,,,#88BA3F,924.6972081661224,199.21712112426758,None,None,None,632.2279237948457,text_05,265,1,1,1,Reading_Baseline_main_no_click,None,sie,,,,,MA02,001,no,647,905,124,141,193,2024-08-28_10h39.32.796,EXNAT_3_fMRI_Psychopy2023.1.3,2023.1.3,60.05177192861888,
0,0,0,0,,,,,,,,,,,#2AB7EF,925.3471620082855,199.86707496643066,None,None,None,632.2279237948457,text_05,266,1,1,1,Reading_Baseline_main_no_click,None,auf,,,,,MA02,001,no,647,905,124,141,193,2024-08-28_10h39.32.796,EXNAT_3_fMRI_Psychopy2023.1.3,2023.1.3,60.05177192861888,
0,0,0,0,,,,,,,,,,,#88BA3F,925.9971101284027,200.51702308654785,None,None,None,632.2279237948457,text_05,267,1,1,1,Reading_Baseline_main_no_click,None,die,,,,,MA02,001,no,647,905,124,141,193,2024-08-28_10h39.32.796,EXNAT_3_fMRI_Psychopy2023.1.3,2023.1.3,60.05177192861888,
0,0,0,0,,,,,,,,,,,#88BA3F,926.6471681594849,201.16708111763,None,None,None,695.5703011418284,text_05,268,1,1,1,Reading_Baseline_main_no_click,None,große,,,,,MA02,001,no,647,905,124,141,193,2024-08-28_10h39.32.796,EXNAT_3_fMRI_Psychopy2023.1.3,2023.1.3,60.05177192861888,
0,0,0,0,,,,,,,,,,,#F989A2,927.3471660614014,201.8670790195465,None,None,None,718.1781741842788,text_05,269,1,1,1,Reading_Baseline_main_no_click,None,Gefahr,,,,,MA02,001,no,647,905,124,141,193,2024-08-28_10h39.32.796,EXNAT_3_fMRI_Psychopy2023.1.3,2023.1.3,60.05177192861888,
0,0,0,0,,,,,,,,,,,#D292F3,928.0805079936981,202.60042095184326,None,None,None,781.5205515312616,text_05,270,1,1,1,Reading_Baseline_main_no_click,None,"hinweisen,",,,,,MA02,001,no,647,905,124,141,193,2024-08-28_10h39.32.796,EXNAT_3_fMRI_Psychopy2023.1.3,2023.1.3,60.05177192861888,
0,0,0,0,,,,,,,,,,,#D292F3,928.8803751468658,203.400288105011,None,None,None,632.2279237948457,text_05,271,1,1,1,Reading_Baseline_main_no_click,None,die,,,,,MA02,001,no,647,905,124,141,193,2024-08-28_10h39.32.796,EXNAT_3_fMRI_Psychopy2023.1.3,2023.1.3,60.05177192861888,
0,0,0,0,,,,,,,,,,,#2AB7EF,929.5301289558411,204.0500419139862,None,None,None,632.2279237948457,text_05,272,1,1,1,Reading_Baseline_main_no_click,None,den,,,,,MA02,001,no,647,905,124,141,193,2024-08-28_10h39.32.796,EXNAT_3_fMRI_Psychopy2023.1.3,2023.1.3,60.05177192861888,
0,0,0,0,,,,,,,,,,,#D292F3,930.1803531646729,204.700266122818,None,None,None,781.5205515312616,text_05,273,1,1,1,Reading_Baseline_main_no_click,None,Chamäleons,,,,,MA02,001,no,647,905,124,141,193,2024-08-28_10h39.32.796,EXNAT_3_fMRI_Psychopy2023.1.3,2023.1.3,60.05177192861888,
0,0,0,0,,,,,,,,,,,#F989A2,930.9801950454712,205.50010800361633,None,None,None,718.1781741842788,text_05,274,1,1,1,Reading_Baseline_main_no_click,None,droht.,,,,,MA02,001,no,647,905,124,141,193,2024-08-28_10h39.32.796,EXNAT_3_fMRI_Psychopy2023.1.3,2023.1.3,60.05177192861888,
0,0,0,0,,,,,,,,,,,#2AB7EF,931.7132771015167,206.23319005966187,None,None,None,632.2279237948457,text_05,275,1,1,1,Reading_Baseline_main_no_click,None,Die,,,,,MA02,001,no,647,905,124,141,193,2024-08-28_10h39.32.796,EXNAT_3_fMRI_Psychopy2023.1.3,2023.1.3,60.05177192861888,
0,0,0,0,,,,,,,,,,,#88BA3F,932.3634440898895,206.88335704803467,None,None,None,768.4558475896913,text_05,276,1,1,1,Reading_Baseline_main_no_click,None,Botschaft,,,,,MA02,001,no,647,905,124,141,193,2024-08-28_10h39.32.796,EXNAT_3_fMRI_Psychopy2023.1.3,2023.1.3,60.05177192861888,
0,0,0,0,,,,,,,,,,,#2AB7EF,933.146625995636,207.66653895378113,None,None,None,718.1781741842788,text_05,277,1,1,1,Reading_Baseline_main_no_click,None,hinter,,,,,MA02,001,no,647,905,124,141,193,2024-08-28_10h39.32.796,EXNAT_3_fMRI_Psychopy2023.1.3,2023.1.3,60.05177192861888,
0,0,0,0,,,,,,,,,,,#D292F3,933.8797700405121,208.39968299865723,None,None,None,632.2279237948457,text_05,278,1,1,1,Reading_Baseline_main_no_click,None,den,,,,,MA02,001,no,647,905,124,141,193,2024-08-28_10h39.32.796,EXNAT_3_fMRI_Psychopy2023.1.3,2023.1.3,60.05177192861888,
0,0,0,0,,,,,,,,,,,#D292F3,934.5298490524292,209.04976201057434,None,None,None,695.5703011418284,text_05,279,1,1,1,Reading_Baseline_main_no_click,None,Namen,,,,,MA02,001,no,647,905,124,141,193,2024-08-28_10h39.32.796,EXNAT_3_fMRI_Psychopy2023.1.3,2023.1.3,60.05177192861888,
0,0,0,0,,,,,,,,,,,#2AB7EF,935.2300560474396,209.74996900558472,None,None,None,768.4558475896913,text_05,280,1,1,1,Reading_Baseline_main_no_click,None,Brookesia,,,,,MA02,001,no,647,905,124,141,193,2024-08-28_10h39.32.796,EXNAT_3_fMRI_Psychopy2023.1.3,2023.1.3,60.05177192861888,
0,0,0,0,,,,,,,,,,,#F989A2,936.013295173645,210.53320813179016,None,None,None,768.4558475896913,text_05,281,1,1,1,Reading_Baseline_main_no_click,None,desperata,,,,,MA02,001,no,647,905,124,141,193,2024-08-28_10h39.32.796,EXNAT_3_fMRI_Psychopy2023.1.3,2023.1.3,60.05177192861888,
0,0,0,0,,,,,,,,,,,#D292F3,936.7962870597839,211.31620001792908,None,None,None,632.2279237948457,text_05,282,1,1,1,Reading_Baseline_main_no_click,None,und,,,,,MA02,001,no,647,905,124,141,193,2024-08-28_10h39.32.796,EXNAT_3_fMRI_Psychopy2023.1.3,2023.1.3,60.05177192861888,
0,0,0,0,,,,,,,,,,,#F989A2,937.4464449882507,211.96635794639587,None,None,None,768.4558475896913,text_05,283,1,1,1,Reading_Baseline_main_no_click,None,Brookesia,,,,,MA02,001,no,647,905,124,141,193,2024-08-28_10h39.32.796,EXNAT_3_fMRI_Psychopy2023.1.3,2023.1.3,60.05177192861888,
0,0,0,0,,,,,,,,,,,#88BA3F,938.2298600673676,212.7497730255127,None,None,None,737.2928584828588,text_05,284,1,1,1,Reading_Baseline_main_no_click,None,tristis,,,,,MA02,001,no,647,905,124,141,193,2024-08-28_10h39.32.796,EXNAT_3_fMRI_Psychopy2023.1.3,2023.1.3,60.05177192861888,
0,0,0,0,,,,,,,,,,,#2AB7EF,938.9799451828003,213.49985814094543,None,None,None,753.8507511682997,text_05,285,1,1,1,Reading_Baseline_main_no_click,None,versteht,,,,,MA02,001,no,647,905,124,141,193,2024-08-28_10h39.32.796,EXNAT_3_fMRI_Psychopy2023.1.3,2023.1.3,60.05177192861888,
0,0,0,0,,,,,,,,,,,#88BA3F,939.746199131012,214.2661120891571,None,None,None,632.2279237948457,text_05,286,1,1,1,Reading_Baseline_main_no_click,None,man,,,,,MA02,001,no,647,905,124,141,193,2024-08-28_10h39.32.796,EXNAT_3_fMRI_Psychopy2023.1.3,2023.1.3,60.05177192861888,
0,0,0,0,,,,,,,,,,,#F989A2,940.3961141109467,214.9160270690918,None,None,None,667.9005007788664,text_05,287,1,1,1,Reading_Baseline_main_no_click,None,auch,,,,,MA02,001,no,647,905,124,141,193,2024-08-28_10h39.32.796,EXNAT_3_fMRI_Psychopy2023.1.3,2023.1.3,60.05177192861888,
0,0,0,0,,,,,,,,,,,#88BA3F,941.0792460441589,215.59915900230408,None,None,None,667.9005007788664,text_05,288,1,1,1,Reading_Baseline_main_no_click,None,ohne,,,,,MA02,001,no,647,905,124,141,193,2024-08-28_10h39.32.796,EXNAT_3_fMRI_Psychopy2023.1.3,2023.1.3,60.05177192861888,
0,0,0,0,,,,,,,,,,,#D292F3,941.7628831863403,216.28279614448547,None,None,None,718.1781741842788,text_05,289,1,1,1,Reading_Baseline_main_no_click,None,Latein,,,,,MA02,001,no,647,905,124,141,193,2024-08-28_10h39.32.796,EXNAT_3_fMRI_Psychopy2023.1.3,2023.1.3,60.05177192861888,
0,0,0,0,,,,,,,,,,,#88BA3F,942.4957480430603,217.01566100120544,None,None,None,620.0,text_05,290,1,1,1,Reading_Baseline_main_no_click,None,zu,,,,,MA02,001,no,647,905,124,141,193,2024-08-28_10h39.32.796,EXNAT_3_fMRI_Psychopy2023.1.3,2023.1.3,60.05177192861888,
0,0,0,0,,,,,,,,,,,#D292F3,943.1292209625244,217.64913392066956,None,None,None,737.2928584828588,text_05,291,1,1,1,Reading_Baseline_main_no_click,None,können:,,,,,MA02,001,no,647,905,124,141,193,2024-08-28_10h39.32.796,EXNAT_3_fMRI_Psychopy2023.1.3,2023.1.3,60.05177192861888,
0,0,0,0,,,,,,,,,,,#88BA3F,943.8791401386261,218.39905309677124,None,None,None,768.4558475896913,text_05,292,1,1,1,Reading_Baseline_main_no_click,None,Desperata,,,,,MA02,001,no,647,905,124,141,193,2024-08-28_10h39.32.796,EXNAT_3_fMRI_Psychopy2023.1.3,2023.1.3,60.05177192861888,
0,0,0,0,,,,,,,,,,,#F989A2,944.6623950004578,219.1823079586029,None,None,None,695.5703011418284,text_05,293,1,1,1,Reading_Baseline_main_no_click,None,heißt,,,,,MA02,001,no,647,905,124,141,193,2024-08-28_10h39.32.796,EXNAT_3_fMRI_Psychopy2023.1.3,2023.1.3,60.05177192861888,
0,0,0,0,,,,,,,,,,,#88BA3F,945.3624491691589,219.88236212730408,None,None,None,793.339013826998,text_05,294,1,1,1,Reading_Baseline_main_no_click,None,verzweifelt,,,,,MA02,001,no,647,905,124,141,193,2024-08-28_10h39.32.796,EXNAT_3_fMRI_Psychopy2023.1.3,2023.1.3,60.05177192861888,
0,0,0,0,,,,,,,,,,,#2AB7EF,946.1620950698853,220.6820080280304,None,None,None,632.2279237948457,text_05,295,1,1,1,Reading_Baseline_main_no_click,None,und,,,,,MA02,001,no,647,905,124,141,193,2024-08-28_10h39.32.796,EXNAT_3_fMRI_Psychopy2023.1.3,2023.1.3,60.05177192861888,
0,0,0,0,,,,,,,,,,,#F989A2,946.8122210502625,221.3321340084076,None,None,None,737.2928584828588,text_05,296,1,1,1,Reading_Baseline_main_no_click,None,tristis,,,,,MA02,001,no,647,905,124,141,193,2024-08-28_10h39.32.796,EXNAT_3_fMRI_Psychopy2023.1.3,2023.1.3,60.05177192861888,
0,0,0,0,,,,,,,,,,,#2AB7EF,947.5619571208954,222.08187007904053,None,None,None,620.0,text_05,297,1,1,1,Reading_Baseline_main_no_click,None,so,,,,,MA02,001,no,647,905,124,141,193,2024-08-28_10h39.32.796,EXNAT_3_fMRI_Psychopy2023.1.3,2023.1.3,60.05177192861888,
0,0,0,0,,,,,,,,,,,#D292F3,948.195543050766,222.71545600891113,None,None,None,667.9005007788664,text_05,298,1,1,1,Reading_Baseline_main_no_click,None,viel,,,,,MA02,001,no,647,905,124,141,193,2024-08-28_10h39.32.796,EXNAT_3_fMRI_Psychopy2023.1.3,2023.1.3,60.05177192861888,
0,0,0,0,,,,,,,,,,,#88BA3F,948.8785710334778,223.39848399162292,None,None,None,632.2279237948457,text_05,299,1,1,1,Reading_Baseline_main_no_click,None,wie,,,,,MA02,001,no,647,905,124,141,193,2024-08-28_10h39.32.796,EXNAT_3_fMRI_Psychopy2023.1.3,2023.1.3,60.05177192861888,
0,0,0,0,,,,,,,,,,,#2AB7EF,949.5289151668549,224.048828125,None,None,None,753.8507511682997,text_05,300,1,1,1,Reading_Baseline_main_no_click,None,traurig.,,,,,MA02,001,no,647,905,124,141,193,2024-08-28_10h39.32.796,EXNAT_3_fMRI_Psychopy2023.1.3,2023.1.3,60.05177192861888,
0,0,0,0,,,,,,,,,,,,950.3414740562439,224.86138701438904,,,,,text_05,,1,1,1,Reading_Baseline_main_no_click,None,,Q1,3,c,True,MA02,001,no,647,905,124,141,193,2024-08-28_10h39.32.796,EXNAT_3_fMRI_Psychopy2023.1.3,2023.1.3,60.05177192861888,
0,0,0,0,,,,,,,,,,,,953.3243880271912,227.8443009853363,,,,,text_05,,1,1,1,Reading_Baseline_main_no_click,None,,Q2,3,c,True,MA02,001,no,647,905,124,141,193,2024-08-28_10h39.32.796,EXNAT_3_fMRI_Psychopy2023.1.3,2023.1.3,60.05177192861888,
0,0,0,0,,,,,,,,,,,,958.5679039955139,233.08781695365906,,,,,text_05,,1,1,1,Reading_Baseline_main_no_click,None,,Q3,2,b,True,MA02,001,no,647,905,124,141,193,2024-08-28_10h39.32.796,EXNAT_3_fMRI_Psychopy2023.1.3,2023.1.3,60.05177192861888,
0,0,0,0,,,,,,,,,,,,,,,,,,,,,,,,,,,,,,MA02,001,no,647,905,124,141,193,2024-08-28_10h39.32.796,EXNAT_3_fMRI_Psychopy2023.1.3,2023.1.3,60.05177192861888,
1,0,1,0,,,,,,,,,,,#88BA3F,969.981005191803,244.50091814994812,None,None,None,632.2279237948457,pseudo_text_06,1,2,1,2,Reading_pseudotext_no_click,None,Der,,,,,MA02,001,no,647,905,124,141,193,2024-08-28_10h39.32.796,EXNAT_3_fMRI_Psychopy2023.1.3,2023.1.3,60.05177192861888,
1,0,1,0,,,,,,,,,,,#2AB7EF,970.6279821395874,245.14789509773254,None,None,None,804.128424573712,pseudo_text_06,2,2,1,2,Reading_pseudotext_no_click,None,"Schwastwaff,",,,,,MA02,001,no,647,905,124,141,193,2024-08-28_10h39.32.796,EXNAT_3_fMRI_Psychopy2023.1.3,2023.1.3,60.05177192861888,
1,0,1,0,,,,,,,,,,,#2AB7EF,971.4436590671539,245.96357202529907,None,None,None,632.2279237948457,pseudo_text_06,3,2,1,2,Reading_pseudotext_no_click,None,mit,,,,,MA02,001,no,647,905,124,141,193,2024-08-28_10h39.32.796,EXNAT_3_fMRI_Psychopy2023.1.3,2023.1.3,60.05177192861888,
1,0,1,0,,,,,,,,,,,#88BA3F,972.0931921005249,246.61310505867004,None,None,None,718.1781741842788,pseudo_text_06,4,2,1,2,Reading_pseudotext_no_click,None,seiser,,,,,MA02,001,no,647,905,124,141,193,2024-08-28_10h39.32.796,EXNAT_3_fMRI_Psychopy2023.1.3,2023.1.3,60.05177192861888,
1,0,1,0,,,,,,,,,,,#F989A2,972.8272240161896,247.34713697433472,None,None,None,814.0537203252305,pseudo_text_06,5,2,1,2,Reading_pseudotext_no_click,None,einküsartiden,,,,,MA02,001,no,647,905,124,141,193,2024-08-28_10h39.32.796,EXNAT_3_fMRI_Psychopy2023.1.3,2023.1.3,60.05177192861888,
1,0,1,0,,,,,,,,,,,#88BA3F,973.6604940891266,248.18040704727173,None,None,None,695.5703011418284,pseudo_text_06,6,2,1,2,Reading_pseudotext_no_click,None,Froda,,,,,MA02,001,no,647,905,124,141,193,2024-08-28_10h39.32.796,EXNAT_3_fMRI_Psychopy2023.1.3,2023.1.3,60.05177192861888,
1,0,1,0,,,,,,,,,,,#D292F3,974.3597650527954,248.87967801094055,None,None,None,632.2279237948457,pseudo_text_06,7,2,1,2,Reading_pseudotext_no_click,None,und,,,,,MA02,001,no,647,905,124,141,193,2024-08-28_10h39.32.796,EXNAT_3_fMRI_Psychopy2023.1.3,2023.1.3,60.05177192861888,
1,0,1,0,,,,,,,,,,,#F989A2,975.0104620456696,249.5303750038147,None,None,None,718.1781741842788,pseudo_text_06,8,2,1,2,Reading_pseudotext_no_click,None,"Gauka,",,,,,MA02,001,no,647,905,124,141,193,2024-08-28_10h39.32.796,EXNAT_3_fMRI_Psychopy2023.1.3,2023.1.3,60.05177192861888,
1,0,1,0,,,,,,,,,,,#D292F3,975.7428040504456,250.2627170085907,None,None,None,632.2279237948457,pseudo_text_06,9,2,1,2,Reading_pseudotext_no_click,None,ühn,,,,,MA02,001,no,647,905,124,141,193,2024-08-28_10h39.32.796,EXNAT_3_fMRI_Psychopy2023.1.3,2023.1.3,60.05177192861888,
1,0,1,0,,,,,,,,,,,#D292F3,976.3931751251221,250.9130880832672,None,None,None,695.5703011418284,pseudo_text_06,10,2,1,2,Reading_pseudotext_no_click,None,jeses,,,,,MA02,001,no,647,905,124,141,193,2024-08-28_10h39.32.796,EXNAT_3_fMRI_Psychopy2023.1.3,2023.1.3,60.05177192861888,
1,0,1,0,,,,,,,,,,,#F989A2,977.0932240486145,251.61313700675964,None,None,None,667.9005007788664,pseudo_text_06,11,2,1,2,Reading_pseudotext_no_click,None,Japf,,,,,MA02,001,no,647,905,124,141,193,2024-08-28_10h39.32.796,EXNAT_3_fMRI_Psychopy2023.1.3,2023.1.3,60.05177192861888,
1,0,1,0,,,,,,,,,,,#D292F3,977.7758791446686,252.29579210281372,None,None,None,667.9005007788664,pseudo_text_06,12,2,1,2,Reading_pseudotext_no_click,None,eine,,,,,MA02,001,no,647,905,124,141,193,2024-08-28_10h39.32.796,EXNAT_3_fMRI_Psychopy2023.1.3,2023.1.3,60.05177192861888,
1,0,1,0,,,,,,,,,,,#88BA3F,978.4592990875244,252.97921204566956,None,None,None,718.1781741842788,pseudo_text_06,13,2,1,2,Reading_pseudotext_no_click,None,stenke,,,,,MA02,001,no,647,905,124,141,193,2024-08-28_10h39.32.796,EXNAT_3_fMRI_Psychopy2023.1.3,2023.1.3,60.05177192861888,
1,0,1,0,,,,,,,,,,,#88BA3F,979.1933670043945,253.71327996253967,None,None,None,831.798224936674,pseudo_text_06,14,2,1,2,Reading_pseudotext_no_click,None,Anziesuchtflent,,,,,MA02,001,no,647,905,124,141,193,2024-08-28_10h39.32.796,EXNAT_3_fMRI_Psychopy2023.1.3,2023.1.3,60.05177192861888,
1,0,1,0,,,,,,,,,,,#D292F3,980.0423221588135,254.56223511695862,None,None,None,632.2279237948457,pseudo_text_06,15,2,1,2,Reading_pseudotext_no_click,None,auf,,,,,MA02,001,no,647,905,124,141,193,2024-08-28_10h39.32.796,EXNAT_3_fMRI_Psychopy2023.1.3,2023.1.3,60.05177192861888,
1,0,1,0,,,,,,,,,,,#2AB7EF,980.6924891471863,255.21240210533142,None,None,None,781.5205515312616,pseudo_text_06,16,2,1,2,Reading_pseudotext_no_click,None,zackheiche,,,,,MA02,001,no,647,905,124,141,193,2024-08-28_10h39.32.796,EXNAT_3_fMRI_Psychopy2023.1.3,2023.1.3,60.05177192861888,
1,0,1,0,,,,,,,,,,,#2AB7EF,981.4932460784912,256.01315903663635,None,None,None,823.243108872292,pseudo_text_06,17,2,1,2,Reading_pseudotext_no_click,None,Zagurkeishaber,,,,,MA02,001,no,647,905,124,141,193,2024-08-28_10h39.32.796,EXNAT_3_fMRI_Psychopy2023.1.3,2023.1.3,60.05177192861888,
1,0,1,0,,,,,,,,,,,#D292F3,982.3255250453949,256.84543800354004,None,None,None,667.9005007788664,pseudo_text_06,18,2,1,2,Reading_pseudotext_no_click,None,"res,",,,,,MA02,001,no,647,905,124,141,193,2024-08-28_10h39.32.796,EXNAT_3_fMRI_Psychopy2023.1.3,2023.1.3,60.05177192861888,
1,0,1,0,,,,,,,,,,,#2AB7EF,983.0087051391602,257.5286180973053,None,None,None,632.2279237948457,pseudo_text_06,19,2,1,2,Reading_pseudotext_no_click,None,die,,,,,MA02,001,no,647,905,124,141,193,2024-08-28_10h39.32.796,EXNAT_3_fMRI_Psychopy2023.1.3,2023.1.3,60.05177192861888,
1,0,1,0,,,,,,,,,,,#F989A2,983.6574549674988,258.1773679256439,None,None,None,632.2279237948457,pseudo_text_06,20,2,1,2,Reading_pseudotext_no_click,None,die,,,,,MA02,001,no,647,905,124,141,193,2024-08-28_10h39.32.796,EXNAT_3_fMRI_Psychopy2023.1.3,2023.1.3,60.05177192861888,
1,0,1,0,,,,,,,,,,,#F989A2,984.2925300598145,258.8124430179596,None,None,None,781.5205515312616,pseudo_text_06,21,2,1,2,Reading_pseudotext_no_click,None,ungetöffte,,,,,MA02,001,no,647,905,124,141,193,2024-08-28_10h39.32.796,EXNAT_3_fMRI_Psychopy2023.1.3,2023.1.3,60.05177192861888,
1,0,1,0,,,,,,,,,,,#F989A2,985.0920951366425,259.6120080947876,None,None,None,768.4558475896913,pseudo_text_06,22,2,1,2,Reading_pseudotext_no_click,None,Schüsheit,,,,,MA02,001,no,647,905,124,141,193,2024-08-28_10h39.32.796,EXNAT_3_fMRI_Psychopy2023.1.3,2023.1.3,60.05177192861888,
1,0,1,0,,,,,,,,,,,#88BA3F,985.87526512146,260.3951780796051,None,None,None,718.1781741842788,pseudo_text_06,23,2,1,2,Reading_pseudotext_no_click,None,dieser,,,,,MA02,001,no,647,905,124,141,193,2024-08-28_10h39.32.796,EXNAT_3_fMRI_Psychopy2023.1.3,2023.1.3,60.05177192861888,
1,0,1,0,,,,,,,,,,,#F989A2,986.6086730957031,261.12858605384827,None,None,None,823.243108872292,pseudo_text_06,24,2,1,2,Reading_pseudotext_no_click,None,sajechötiffsen,,,,,MA02,001,no,647,905,124,141,193,2024-08-28_10h39.32.796,EXNAT_3_fMRI_Psychopy2023.1.3,2023.1.3,60.05177192861888,
1,0,1,0,,,,,,,,,,,#F989A2,987.4422671794891,261.9621801376343,None,None,None,718.1781741842788,pseudo_text_06,25,2,1,2,Reading_pseudotext_no_click,None,Lediän,,,,,MA02,001,no,647,905,124,141,193,2024-08-28_10h39.32.796,EXNAT_3_fMRI_Psychopy2023.1.3,2023.1.3,60.05177192861888,
1,0,1,0,,,,,,,,,,,#2AB7EF,988.1754951477051,262.6954081058502,None,None,None,737.2928584828588,pseudo_text_06,26,2,1,2,Reading_pseudotext_no_click,None,ermißen,,,,,MA02,001,no,647,905,124,141,193,2024-08-28_10h39.32.796,EXNAT_3_fMRI_Psychopy2023.1.3,2023.1.3,60.05177192861888,
1,0,1,0,,,,,,,,,,,#F989A2,988.9256100654602,263.44552302360535,None,None,None,753.8507511682997,pseudo_text_06,27,2,1,2,Reading_pseudotext_no_click,None,rächten.,,,,,MA02,001,no,647,905,124,141,193,2024-08-28_10h39.32.796,EXNAT_3_fMRI_Psychopy2023.1.3,2023.1.3,60.05177192861888,
1,0,1,0,,,,,,,,,,,#2AB7EF,989.6915521621704,264.21146512031555,None,None,None,695.5703011418284,pseudo_text_06,28,2,1,2,Reading_pseudotext_no_click,None,Seise,,,,,MA02,001,no,647,905,124,141,193,2024-08-28_10h39.32.796,EXNAT_3_fMRI_Psychopy2023.1.3,2023.1.3,60.05177192861888,
1,0,1,0,,,,,,,,,,,#2AB7EF,990.3915481567383,264.9114611148834,None,None,None,737.2928584828588,pseudo_text_06,29,2,1,2,Reading_pseudotext_no_click,None,pechten,,,,,MA02,001,no,647,905,124,141,193,2024-08-28_10h39.32.796,EXNAT_3_fMRI_Psychopy2023.1.3,2023.1.3,60.05177192861888,
1,0,1,0,,,,,,,,,,,#D292F3,991.1415059566498,265.6614189147949,None,None,None,737.2928584828588,pseudo_text_06,30,2,1,2,Reading_pseudotext_no_click,None,"Sölder,",,,,,MA02,001,no,647,905,124,141,193,2024-08-28_10h39.32.796,EXNAT_3_fMRI_Psychopy2023.1.3,2023.1.3,60.05177192861888,
1,0,1,0,,,,,,,,,,,#D292F3,991.8914721012115,266.4113850593567,None,None,None,718.1781741842788,pseudo_text_06,31,2,1,2,Reading_pseudotext_no_click,None,spaben,,,,,MA02,001,no,647,905,124,141,193,2024-08-28_10h39.32.796,EXNAT_3_fMRI_Psychopy2023.1.3,2023.1.3,60.05177192861888,
1,0,1,0,,,,,,,,,,,#88BA3F,992.6249279975891,267.14484095573425,None,None,None,695.5703011418284,pseudo_text_06,32,2,1,2,Reading_pseudotext_no_click,None,Niche,,,,,MA02,001,no,647,905,124,141,193,2024-08-28_10h39.32.796,EXNAT_3_fMRI_Psychopy2023.1.3,2023.1.3,60.05177192861888,
1,0,1,0,,,,,,,,,,,#D292F3,993.3245091438293,267.8444221019745,None,None,None,632.2279237948457,pseudo_text_06,33,2,1,2,Reading_pseudotext_no_click,None,und,,,,,MA02,001,no,647,905,124,141,193,2024-08-28_10h39.32.796,EXNAT_3_fMRI_Psychopy2023.1.3,2023.1.3,60.05177192861888,
1,0,1,0,,,,,,,,,,,#88BA3F,993.9746811389923,268.49459409713745,None,None,None,793.339013826998,pseudo_text_06,34,2,1,2,Reading_pseudotext_no_click,None,wozereschen,,,,,MA02,001,no,647,905,124,141,193,2024-08-28_10h39.32.796,EXNAT_3_fMRI_Psychopy2023.1.3,2023.1.3,60.05177192861888,
1,0,1,0,,,,,,,,,,,#F989A2,994.7749371528625,269.2948501110077,None,None,None,768.4558475896913,pseudo_text_06,35,2,1,2,Reading_pseudotext_no_click,None,Belfknade,,,,,MA02,001,no,647,905,124,141,193,2024-08-28_10h39.32.796,EXNAT_3_fMRI_Psychopy2023.1.3,2023.1.3,60.05177192861888,
1,0,1,0,,,,,,,,,,,#88BA3F,995.558217048645,270.07813000679016,None,None,None,718.1781741842788,pseudo_text_06,36,2,1,2,Reading_pseudotext_no_click,None,gimden,,,,,MA02,001,no,647,905,124,141,193,2024-08-28_10h39.32.796,EXNAT_3_fMRI_Psychopy2023.1.3,2023.1.3,60.05177192861888,
1,0,1,0,,,,,,,,,,,#2AB7EF,996.2910361289978,270.81094908714294,None,None,None,632.2279237948457,pseudo_text_06,37,2,1,2,Reading_pseudotext_no_click,None,ein,,,,,MA02,001,no,647,905,124,141,193,2024-08-28_10h39.32.796,EXNAT_3_fMRI_Psychopy2023.1.3,2023.1.3,60.05177192861888,
1,0,1,0,,,,,,,,,,,#88BA3F,996.9413771629333,271.4612901210785,None,None,None,804.128424573712,pseudo_text_06,38,2,1,2,Reading_pseudotext_no_click,None,viefbaktiges,,,,,MA02,001,no,647,905,124,141,193,2024-08-28_10h39.32.796,EXNAT_3_fMRI_Psychopy2023.1.3,2023.1.3,60.05177192861888,
1,0,1,0,,,,,,,,,,,#F989A2,997.7582550048828,272.27816796302795,None,None,None,781.5205515312616,pseudo_text_06,39,2,1,2,Reading_pseudotext_no_click,None,"Ärobystel,",,,,,MA02,001,no,647,905,124,141,193,2024-08-28_10h39.32.796,EXNAT_3_fMRI_Psychopy2023.1.3,2023.1.3,60.05177192861888,
1,0,1,0,,,,,,,,,,,#D292F3,998.5574281215668,273.0773410797119,None,None,None,632.2279237948457,pseudo_text_06,40,2,1,2,Reading_pseudotext_no_click,None,das,,,,,MA02,001,no,647,905,124,141,193,2024-08-28_10h39.32.796,EXNAT_3_fMRI_Psychopy2023.1.3,2023.1.3,60.05177192861888,
1,0,1,0,,,,,,,,,,,#D292F3,999.2074451446533,273.72735810279846,None,None,None,667.9005007788664,pseudo_text_06,41,2,1,2,Reading_pseudotext_no_click,None,eine,,,,,MA02,001,no,647,905,124,141,193,2024-08-28_10h39.32.796,EXNAT_3_fMRI_Psychopy2023.1.3,2023.1.3,60.05177192861888,
1,0,1,0,,,,,,,,,,,#F989A2,999.89080119133,274.4107141494751,None,None,None,695.5703011418284,pseudo_text_06,42,2,1,2,Reading_pseudotext_no_click,None,spowe,,,,,MA02,001,no,647,905,124,141,193,2024-08-28_10h39.32.796,EXNAT_3_fMRI_Psychopy2023.1.3,2023.1.3,60.05177192861888,
1,0,1,0,,,,,,,,,,,#2AB7EF,1000.5906841754913,275.1105971336365,None,None,None,667.9005007788664,pseudo_text_06,43,2,1,2,Reading_pseudotext_no_click,None,Zakt,,,,,MA02,001,no,647,905,124,141,193,2024-08-28_10h39.32.796,EXNAT_3_fMRI_Psychopy2023.1.3,2023.1.3,60.05177192861888,
1,0,1,0,,,,,,,,,,,#D292F3,1001.2739140987396,275.79382705688477,None,None,None,632.2279237948457,pseudo_text_06,44,2,1,2,Reading_pseudotext_no_click,None,von,,,,,MA02,001,no,647,905,124,141,193,2024-08-28_10h39.32.796,EXNAT_3_fMRI_Psychopy2023.1.3,2023.1.3,60.05177192861888,
1,0,1,0,,,,,,,,,,,#D292F3,1001.9245669841766,276.4444799423218,None,None,None,695.5703011418284,pseudo_text_06,45,2,1,2,Reading_pseudotext_no_click,None,Mier-,,,,,MA02,001,no,647,905,124,141,193,2024-08-28_10h39.32.796,EXNAT_3_fMRI_Psychopy2023.1.3,2023.1.3,60.05177192861888,
1,0,1,0,,,,,,,,,,,#88BA3F,1002.6236660480499,277.14357900619507,None,None,None,632.2279237948457,pseudo_text_06,46,2,1,2,Reading_pseudotext_no_click,None,und,,,,,MA02,001,no,647,905,124,141,193,2024-08-28_10h39.32.796,EXNAT_3_fMRI_Psychopy2023.1.3,2023.1.3,60.05177192861888,
1,0,1,0,,,,,,,,,,,#F989A2,1003.2738809585571,277.79379391670227,None,None,None,814.0537203252305,pseudo_text_06,47,2,1,2,Reading_pseudotext_no_click,None,Sprannenulten,,,,,MA02,001,no,647,905,124,141,193,2024-08-28_10h39.32.796,EXNAT_3_fMRI_Psychopy2023.1.3,2023.1.3,60.05177192861888,
1,0,1,0,,,,,,,,,,,#88BA3F,1004.0907640457153,278.6106770038605,None,None,None,793.339013826998,pseudo_text_06,48,2,1,2,Reading_pseudotext_no_click,None,benermerzt.,,,,,MA02,001,no,647,905,124,141,193,2024-08-28_10h39.32.796,EXNAT_3_fMRI_Psychopy2023.1.3,2023.1.3,60.05177192861888,
1,0,1,0,,,,,,,,,,,#88BA3F,1004.8903880119324,279.4103009700775,None,None,None,632.2279237948457,pseudo_text_06,49,2,1,2,Reading_pseudotext_no_click,None,Die,,,,,MA02,001,no,647,905,124,141,193,2024-08-28_10h39.32.796,EXNAT_3_fMRI_Psychopy2023.1.3,2023.1.3,60.05177192861888,
1,0,1,0,,,,,,,,,,,#F989A2,1005.5404450893402,280.06035804748535,None,None,None,718.1781741842788,pseudo_text_06,50,2,1,2,Reading_pseudotext_no_click,None,Lediän,,,,,MA02,001,no,647,905,124,141,193,2024-08-28_10h39.32.796,EXNAT_3_fMRI_Psychopy2023.1.3,2023.1.3,60.05177192861888,
1,0,1,0,,,,,,,,,,,#2AB7EF,1006.2735900878906,280.79350304603577,None,None,None,632.2279237948457,pseudo_text_06,51,2,1,2,Reading_pseudotext_no_click,None,ost,,,,,MA02,001,no,647,905,124,141,193,2024-08-28_10h39.32.796,EXNAT_3_fMRI_Psychopy2023.1.3,2023.1.3,60.05177192861888,
1,0,1,0,,,,,,,,,,,#2AB7EF,1006.9235351085663,281.4434480667114,None,None,None,695.5703011418284,pseudo_text_06,52,2,1,2,Reading_pseudotext_no_click,None,gicht,,,,,MA02,001,no,647,905,124,141,193,2024-08-28_10h39.32.796,EXNAT_3_fMRI_Psychopy2023.1.3,2023.1.3,60.05177192861888,
1,0,1,0,,,,,,,,,,,#F989A2,1007.6233110427856,282.1432240009308,None,None,None,632.2279237948457,pseudo_text_06,53,2,1,2,Reading_pseudotext_no_click,None,hor,,,,,MA02,001,no,647,905,124,141,193,2024-08-28_10h39.32.796,EXNAT_3_fMRI_Psychopy2023.1.3,2023.1.3,60.05177192861888,
1,0,1,0,,,,,,,,,,,#2AB7EF,1008.2732660770416,282.79317903518677,None,None,None,632.2279237948457,pseudo_text_06,54,2,1,2,Reading_pseudotext_no_click,None,bei,,,,,MA02,001,no,647,905,124,141,193,2024-08-28_10h39.32.796,EXNAT_3_fMRI_Psychopy2023.1.3,2023.1.3,60.05177192861888,
1,0,1,0,,,,,,,,,,,#F989A2,1008.9236891269684,283.4436020851135,None,None,None,781.5205515312616,pseudo_text_06,55,2,1,2,Reading_pseudotext_no_click,None,Fliwehrern,,,,,MA02,001,no,647,905,124,141,193,2024-08-28_10h39.32.796,EXNAT_3_fMRI_Psychopy2023.1.3,2023.1.3,60.05177192861888,
1,0,1,0,,,,,,,,,,,#D292F3,1009.7231571674347,284.24307012557983,None,None,None,632.2279237948457,pseudo_text_06,56,2,1,2,Reading_pseudotext_no_click,None,und,,,,,MA02,001,no,647,905,124,141,193,2024-08-28_10h39.32.796,EXNAT_3_fMRI_Psychopy2023.1.3,2023.1.3,60.05177192861888,
1,0,1,0,,,,,,,,,,,#88BA3F,1010.3733999729156,284.8933129310608,None,None,None,804.128424573712,pseudo_text_06,57,2,1,2,Reading_pseudotext_no_click,None,Sadspicklern,,,,,MA02,001,no,647,905,124,141,193,2024-08-28_10h39.32.796,EXNAT_3_fMRI_Psychopy2023.1.3,2023.1.3,60.05177192861888,
1,0,1,0,,,,,,,,,,,#D292F3,1011.1898729801178,285.70978593826294,None,None,None,753.8507511682997,pseudo_text_06,58,2,1,2,Reading_pseudotext_no_click,None,"beninnt,",,,,,MA02,001,no,647,905,124,141,193,2024-08-28_10h39.32.796,EXNAT_3_fMRI_Psychopy2023.1.3,2023.1.3,60.05177192861888,
