loop_run1_single_reading.thisRepN,loop_run1_single_reading.thisTrialN,loop_run1_single_reading.thisN,loop_run1_single_reading.thisIndex,TriggerCount,TriggerTime,colour,global_onset_time,onset_time_rel2trigger,target,nback_response,nback_RT,duration,text_nr,trial_nr,block_nr_exp,run_nr,block_nr_run,block_name,n-back_level,word,question,button_pressed,chosen_ans,ans_correct,participant,session,testing_mode,RT_per_rectangle_oneback_single,RT_per_rectangle_twoback_single,RT_per_letter_baseline,RT_per_letter_oneback_dual,RT_per_letter_twoback_dual,date,expName,psychopyVersion,frameRate,
0,0,0,0,1,945.1952879428864,#D292F3,956.0472679138184,10.851979970932007,None,None,None,994.2293962902814,text_07,1,1,1,1,Reading_Baseline_main_no_click,None,Wer,,,,,OA01,001,no,1500,2000,195,250,500,2024-08-22_11h39.36.650,EXNAT_3_fMRI_Psychopy2023.1.3,2023.1.3,75.03052701815521,
0,0,0,0,,,#F989A2,957.0471949577332,11.851907014846802,None,None,None,1129.3930964994706,text_07,2,1,1,1,Reading_Baseline_main_no_click,None,Angkor,,,,,OA01,001,no,1500,2000,195,250,500,2024-08-22_11h39.36.650,EXNAT_3_fMRI_Psychopy2023.1.3,2023.1.3,75.03052701815521,
0,0,0,0,,,#D292F3,958.1798348426819,12.984546899795532,None,None,None,1093.8403929246497,text_07,3,1,1,1,Reading_Baseline_main_no_click,None,"sagt,",,,,,OA01,001,no,1500,2000,195,250,500,2024-08-22_11h39.36.650,EXNAT_3_fMRI_Psychopy2023.1.3,2023.1.3,75.03052701815521,
0,0,0,0,,,#88BA3F,959.285817861557,14.090529918670654,None,None,None,1093.8403929246497,text_07,4,1,1,1,Reading_Baseline_main_no_click,None,meint,,,,,OA01,001,no,1500,2000,195,250,500,2024-08-22_11h39.36.650,EXNAT_3_fMRI_Psychopy2023.1.3,2023.1.3,75.03052701815521,
0,0,0,0,,,#88BA3F,960.3913760185242,15.196088075637817,None,None,None,975.0,text_07,5,1,1,1,Reading_Baseline_main_no_click,None,in,,,,,OA01,001,no,1500,2000,195,250,500,2024-08-22_11h39.36.650,EXNAT_3_fMRI_Psychopy2023.1.3,2023.1.3,75.03052701815521,
0,0,0,0,,,#2AB7EF,961.3779890537262,16.182701110839844,None,None,None,994.2293962902814,text_07,6,1,1,1,Reading_Baseline_main_no_click,None,der,,,,,OA01,001,no,1500,2000,195,250,500,2024-08-22_11h39.36.650,EXNAT_3_fMRI_Psychopy2023.1.3,2023.1.3,75.03052701815521,
0,0,0,0,,,#88BA3F,962.3783359527588,17.183048009872437,None,None,None,1093.8403929246497,text_07,7,1,1,1,Reading_Baseline_main_no_click,None,Regel,,,,,OA01,001,no,1500,2000,195,250,500,2024-08-22_11h39.36.650,EXNAT_3_fMRI_Psychopy2023.1.3,2023.1.3,75.03052701815521,
0,0,0,0,,,#2AB7EF,963.483726978302,18.28843903541565,None,None,None,1129.3930964994706,text_07,8,1,1,1,Reading_Baseline_main_no_click,None,Angkor,,,,,OA01,001,no,1500,2000,195,250,500,2024-08-22_11h39.36.650,EXNAT_3_fMRI_Psychopy2023.1.3,2023.1.3,75.03052701815521,
0,0,0,0,,,#D292F3,964.6168949604034,19.42160701751709,None,None,None,1050.3274004183786,text_07,9,1,1,1,Reading_Baseline_main_no_click,None,Wat.,,,,,OA01,001,no,1500,2000,195,250,500,2024-08-22_11h39.36.650,EXNAT_3_fMRI_Psychopy2023.1.3,2023.1.3,75.03052701815521,
0,0,0,0,,,#F989A2,965.6697590351105,20.47447109222412,None,None,None,994.2293962902814,text_07,10,1,1,1,Reading_Baseline_main_no_click,None,Die,,,,,OA01,001,no,1500,2000,195,250,500,2024-08-22_11h39.36.650,EXNAT_3_fMRI_Psychopy2023.1.3,2023.1.3,75.03052701815521,
0,0,0,0,,,#2AB7EF,966.6700839996338,21.474796056747437,None,None,None,1185.491100627568,text_07,11,1,1,1,Reading_Baseline_main_no_click,None,berühmte,,,,,OA01,001,no,1500,2000,195,250,500,2024-08-22_11h39.36.650,EXNAT_3_fMRI_Psychopy2023.1.3,2023.1.3,75.03052701815521,
0,0,0,0,,,#F989A2,967.8695559501648,22.674268007278442,None,None,None,1264.55679670866,text_07,12,1,1,1,Reading_Baseline_main_no_click,None,Tempelanlage,,,,,OA01,001,no,1500,2000,195,250,500,2024-08-22_11h39.36.650,EXNAT_3_fMRI_Psychopy2023.1.3,2023.1.3,75.03052701815521,
0,0,0,0,,,#2AB7EF,969.1489150524139,23.953627109527588,None,None,None,1093.8403929246497,text_07,13,1,1,1,Reading_Baseline_main_no_click,None,wurde,,,,,OA01,001,no,1500,2000,195,250,500,2024-08-22_11h39.36.650,EXNAT_3_fMRI_Psychopy2023.1.3,2023.1.3,75.03052701815521,
0,0,0,0,,,#88BA3F,970.2553510665894,25.060063123703003,None,None,None,1229.004093133839,text_07,14,1,1,1,Reading_Baseline_main_no_click,None,vermutlich,,,,,OA01,001,no,1500,2000,195,250,500,2024-08-22_11h39.36.650,EXNAT_3_fMRI_Psychopy2023.1.3,2023.1.3,75.03052701815521,
0,0,0,0,,,#F989A2,971.4943609237671,26.299072980880737,None,None,None,994.2293962902814,text_07,15,1,1,1,Reading_Baseline_main_no_click,None,vor,,,,,OA01,001,no,1500,2000,195,250,500,2024-08-22_11h39.36.650,EXNAT_3_fMRI_Psychopy2023.1.3,2023.1.3,75.03052701815521,
0,0,0,0,,,#D292F3,972.4938788414001,27.298590898513794,None,None,None,1093.8403929246497,text_07,16,1,1,1,Reading_Baseline_main_no_click,None,knapp,,,,,OA01,001,no,1500,2000,195,250,500,2024-08-22_11h39.36.650,EXNAT_3_fMRI_Psychopy2023.1.3,2023.1.3,75.03052701815521,
0,0,0,0,,,#88BA3F,973.6007750034332,28.405487060546875,None,None,None,994.2293962902814,text_07,17,1,1,1,Reading_Baseline_main_no_click,None,900,,,,,OA01,001,no,1500,2000,195,250,500,2024-08-22_11h39.36.650,EXNAT_3_fMRI_Psychopy2023.1.3,2023.1.3,75.03052701815521,
0,0,0,0,,,#2AB7EF,974.6004848480225,29.40519690513611,None,None,None,1129.3930964994706,text_07,18,1,1,1,Reading_Baseline_main_no_click,None,Jahren,,,,,OA01,001,no,1500,2000,195,250,500,2024-08-22_11h39.36.650,EXNAT_3_fMRI_Psychopy2023.1.3,2023.1.3,75.03052701815521,
0,0,0,0,,,#D292F3,975.7325119972229,30.537224054336548,None,None,None,975.0,text_07,19,1,1,1,Reading_Baseline_main_no_click,None,in,,,,,OA01,001,no,1500,2000,195,250,500,2024-08-22_11h39.36.650,EXNAT_3_fMRI_Psychopy2023.1.3,2023.1.3,75.03052701815521,
0,0,0,0,,,#88BA3F,976.7188808917999,31.523592948913574,None,None,None,994.2293962902814,text_07,20,1,1,1,Reading_Baseline_main_no_click,None,den,,,,,OA01,001,no,1500,2000,195,250,500,2024-08-22_11h39.36.650,EXNAT_3_fMRI_Psychopy2023.1.3,2023.1.3,75.03052701815521,
0,0,0,0,,,#D292F3,977.7187569141388,32.52346897125244,None,None,None,1208.4587925805629,text_07,21,1,1,1,Reading_Baseline_main_no_click,None,Dschungel,,,,,OA01,001,no,1500,2000,195,250,500,2024-08-22_11h39.36.650,EXNAT_3_fMRI_Psychopy2023.1.3,2023.1.3,75.03052701815521,
0,0,0,0,,,#F989A2,978.9321398735046,33.736851930618286,None,None,None,1247.5895781956824,text_07,22,1,1,1,Reading_Baseline_main_no_click,None,Kambodschas,,,,,OA01,001,no,1500,2000,195,250,500,2024-08-22_11h39.36.650,EXNAT_3_fMRI_Psychopy2023.1.3,2023.1.3,75.03052701815521,
0,0,0,0,,,#D292F3,980.1848299503326,34.98954200744629,None,None,None,1159.452479065786,text_07,23,1,1,1,Reading_Baseline_main_no_click,None,gebaut.,,,,,OA01,001,no,1500,2000,195,250,500,2024-08-22_11h39.36.650,EXNAT_3_fMRI_Psychopy2023.1.3,2023.1.3,75.03052701815521,
0,0,0,0,,,#2AB7EF,981.3577110767365,36.1624231338501,None,None,None,1050.3274004183786,text_07,24,1,1,1,Reading_Baseline_main_no_click,None,Seit,,,,,OA01,001,no,1500,2000,195,250,500,2024-08-22_11h39.36.650,EXNAT_3_fMRI_Psychopy2023.1.3,2023.1.3,75.03052701815521,
0,0,0,0,,,#D292F3,982.4102468490601,37.214958906173706,None,None,None,1050.3274004183786,text_07,25,1,1,1,Reading_Baseline_main_no_click,None,mehr,,,,,OA01,001,no,1500,2000,195,250,500,2024-08-22_11h39.36.650,EXNAT_3_fMRI_Psychopy2023.1.3,2023.1.3,75.03052701815521,
0,0,0,0,,,#88BA3F,983.463604927063,38.268316984176636,None,None,None,994.2293962902814,text_07,26,1,1,1,Reading_Baseline_main_no_click,None,als,,,,,OA01,001,no,1500,2000,195,250,500,2024-08-22_11h39.36.650,EXNAT_3_fMRI_Psychopy2023.1.3,2023.1.3,75.03052701815521,
0,0,0,0,,,#F989A2,984.4633619785309,39.26807403564453,None,None,None,1159.452479065786,text_07,27,1,1,1,Reading_Baseline_main_no_click,None,hundert,,,,,OA01,001,no,1500,2000,195,250,500,2024-08-22_11h39.36.650,EXNAT_3_fMRI_Psychopy2023.1.3,2023.1.3,75.03052701815521,
0,0,0,0,,,#2AB7EF,985.6362428665161,40.44095492362976,None,None,None,1129.3930964994706,text_07,28,1,1,1,Reading_Baseline_main_no_click,None,Jahren,,,,,OA01,001,no,1500,2000,195,250,500,2024-08-22_11h39.36.650,EXNAT_3_fMRI_Psychopy2023.1.3,2023.1.3,75.03052701815521,
0,0,0,0,,,#F989A2,986.7689869403839,41.57369899749756,None,None,None,994.2293962902814,text_07,29,1,1,1,Reading_Baseline_main_no_click,None,hat,,,,,OA01,001,no,1500,2000,195,250,500,2024-08-22_11h39.36.650,EXNAT_3_fMRI_Psychopy2023.1.3,2023.1.3,75.03052701815521,
0,0,0,0,,,#2AB7EF,987.7686738967896,42.5733859539032,None,None,None,1050.3274004183786,text_07,30,1,1,1,Reading_Baseline_main_no_click,None,sich,,,,,OA01,001,no,1500,2000,195,250,500,2024-08-22_11h39.36.650,EXNAT_3_fMRI_Psychopy2023.1.3,2023.1.3,75.03052701815521,
0,0,0,0,,,#F989A2,988.8215448856354,43.62625694274902,None,None,None,994.2293962902814,text_07,31,1,1,1,Reading_Baseline_main_no_click,None,die,,,,,OA01,001,no,1500,2000,195,250,500,2024-08-22_11h39.36.650,EXNAT_3_fMRI_Psychopy2023.1.3,2023.1.3,75.03052701815521,
0,0,0,0,,,#D292F3,989.8217718601227,44.62648391723633,None,None,None,1264.55679670866,text_07,32,1,1,1,Reading_Baseline_main_no_click,None,Wissenschaft,,,,,OA01,001,no,1500,2000,195,250,500,2024-08-22_11h39.36.650,EXNAT_3_fMRI_Psychopy2023.1.3,2023.1.3,75.03052701815521,
0,0,0,0,,,#88BA3F,991.1004869937897,45.90519905090332,None,None,None,994.2293962902814,text_07,33,1,1,1,Reading_Baseline_main_no_click,None,auf,,,,,OA01,001,no,1500,2000,195,250,500,2024-08-22_11h39.36.650,EXNAT_3_fMRI_Psychopy2023.1.3,2023.1.3,75.03052701815521,
0,0,0,0,,,#2AB7EF,992.1001470088959,46.90485906600952,None,None,None,994.2293962902814,text_07,34,1,1,1,Reading_Baseline_main_no_click,None,die,,,,,OA01,001,no,1500,2000,195,250,500,2024-08-22_11h39.36.650,EXNAT_3_fMRI_Psychopy2023.1.3,2023.1.3,75.03052701815521,
0,0,0,0,,,#D292F3,993.10027384758,47.9049859046936,None,None,None,1185.491100627568,text_07,35,1,1,1,Reading_Baseline_main_no_click,None,riesigen,,,,,OA01,001,no,1500,2000,195,250,500,2024-08-22_11h39.36.650,EXNAT_3_fMRI_Psychopy2023.1.3,2023.1.3,75.03052701815521,
0,0,0,0,,,#88BA3F,994.2997488975525,49.10446095466614,None,None,None,1280.1651247049997,text_07,36,1,1,1,Reading_Baseline_main_no_click,None,Tempelanlagen,,,,,OA01,001,no,1500,2000,195,250,500,2024-08-22_11h39.36.650,EXNAT_3_fMRI_Psychopy2023.1.3,2023.1.3,75.03052701815521,
0,0,0,0,,,#D292F3,995.5926380157471,50.39735007286072,None,None,None,994.2293962902814,text_07,37,1,1,1,Reading_Baseline_main_no_click,None,und,,,,,OA01,001,no,1500,2000,195,250,500,2024-08-22_11h39.36.650,EXNAT_3_fMRI_Psychopy2023.1.3,2023.1.3,75.03052701815521,
0,0,0,0,,,#88BA3F,996.5924339294434,51.39714598655701,None,None,None,1050.3274004183786,text_07,38,1,1,1,Reading_Baseline_main_no_click,None,ihre,,,,,OA01,001,no,1500,2000,195,250,500,2024-08-22_11h39.36.650,EXNAT_3_fMRI_Psychopy2023.1.3,2023.1.3,75.03052701815521,
0,0,0,0,,,#2AB7EF,997.646213054657,52.45092511177063,None,None,None,1247.5895781956824,text_07,39,1,1,1,Reading_Baseline_main_no_click,None,Inschriften,,,,,OA01,001,no,1500,2000,195,250,500,2024-08-22_11h39.36.650,EXNAT_3_fMRI_Psychopy2023.1.3,2023.1.3,75.03052701815521,
0,0,0,0,,,#88BA3F,998.8992578983307,53.703969955444336,None,None,None,1280.1651247049997,text_07,40,1,1,1,Reading_Baseline_main_no_click,None,konzentriert.,,,,,OA01,001,no,1500,2000,195,250,500,2024-08-22_11h39.36.650,EXNAT_3_fMRI_Psychopy2023.1.3,2023.1.3,75.03052701815521,
0,0,0,0,,,#F989A2,1000.191244840622,54.995956897735596,None,None,None,994.2293962902814,text_07,41,1,1,1,Reading_Baseline_main_no_click,None,Für,,,,,OA01,001,no,1500,2000,195,250,500,2024-08-22_11h39.36.650,EXNAT_3_fMRI_Psychopy2023.1.3,2023.1.3,75.03052701815521,
0,0,0,0,,,#2AB7EF,1001.1904580593109,55.99517011642456,None,None,None,994.2293962902814,text_07,42,1,1,1,Reading_Baseline_main_no_click,None,die,,,,,OA01,001,no,1500,2000,195,250,500,2024-08-22_11h39.36.650,EXNAT_3_fMRI_Psychopy2023.1.3,2023.1.3,75.03052701815521,
0,0,0,0,,,#88BA3F,1002.1907448768616,56.99545693397522,None,None,None,1247.5895781956824,text_07,43,1,1,1,Reading_Baseline_main_no_click,None,Lebensweise,,,,,OA01,001,no,1500,2000,195,250,500,2024-08-22_11h39.36.650,EXNAT_3_fMRI_Psychopy2023.1.3,2023.1.3,75.03052701815521,
0,0,0,0,,,#F989A2,1003.4428639411926,58.247575998306274,None,None,None,994.2293962902814,text_07,44,1,1,1,Reading_Baseline_main_no_click,None,der,,,,,OA01,001,no,1500,2000,195,250,500,2024-08-22_11h39.36.650,EXNAT_3_fMRI_Psychopy2023.1.3,2023.1.3,75.03052701815521,
0,0,0,0,,,#88BA3F,1004.4432740211487,59.24798607826233,None,None,None,1185.491100627568,text_07,45,1,1,1,Reading_Baseline_main_no_click,None,Bewohner,,,,,OA01,001,no,1500,2000,195,250,500,2024-08-22_11h39.36.650,EXNAT_3_fMRI_Psychopy2023.1.3,2023.1.3,75.03052701815521,
0,0,0,0,,,#F989A2,1005.642068862915,60.44678092002869,None,None,None,994.2293962902814,text_07,46,1,1,1,Reading_Baseline_main_no_click,None,der,,,,,OA01,001,no,1500,2000,195,250,500,2024-08-22_11h39.36.650,EXNAT_3_fMRI_Psychopy2023.1.3,2023.1.3,75.03052701815521,
0,0,0,0,,,#88BA3F,1006.6421279907227,61.446840047836304,None,None,None,1129.3930964994706,text_07,47,1,1,1,Reading_Baseline_main_no_click,None,Region,,,,,OA01,001,no,1500,2000,195,250,500,2024-08-22_11h39.36.650,EXNAT_3_fMRI_Psychopy2023.1.3,2023.1.3,75.03052701815521,
0,0,0,0,,,#D292F3,1007.7748079299927,62.57951998710632,None,None,None,994.2293962902814,text_07,48,1,1,1,Reading_Baseline_main_no_click,None,hat,,,,,OA01,001,no,1500,2000,195,250,500,2024-08-22_11h39.36.650,EXNAT_3_fMRI_Psychopy2023.1.3,2023.1.3,75.03052701815521,
0,0,0,0,,,#88BA3F,1008.7744648456573,63.579176902770996,None,None,None,1050.3274004183786,text_07,49,1,1,1,Reading_Baseline_main_no_click,None,sich,,,,,OA01,001,no,1500,2000,195,250,500,2024-08-22_11h39.36.650,EXNAT_3_fMRI_Psychopy2023.1.3,2023.1.3,75.03052701815521,
0,0,0,0,,,#F989A2,1009.8276648521423,64.63237690925598,None,None,None,1185.491100627568,text_07,50,1,1,1,Reading_Baseline_main_no_click,None,hingegen,,,,,OA01,001,no,1500,2000,195,250,500,2024-08-22_11h39.36.650,EXNAT_3_fMRI_Psychopy2023.1.3,2023.1.3,75.03052701815521,
0,0,0,0,,,#2AB7EF,1011.0270068645477,65.83171892166138,None,None,None,1050.3274004183786,text_07,51,1,1,1,Reading_Baseline_main_no_click,None,kaum,,,,,OA01,001,no,1500,2000,195,250,500,2024-08-22_11h39.36.650,EXNAT_3_fMRI_Psychopy2023.1.3,2023.1.3,75.03052701815521,
0,0,0,0,,,#D292F3,1012.0808010101318,66.88551306724548,None,None,None,1129.3930964994706,text_07,52,1,1,1,Reading_Baseline_main_no_click,None,jemand,,,,,OA01,001,no,1500,2000,195,250,500,2024-08-22_11h39.36.650,EXNAT_3_fMRI_Psychopy2023.1.3,2023.1.3,75.03052701815521,
0,0,0,0,,,#2AB7EF,1013.2129509449005,68.01766300201416,None,None,None,1280.1651247049997,text_07,53,1,1,1,Reading_Baseline_main_no_click,None,interessiert.,,,,,OA01,001,no,1500,2000,195,250,500,2024-08-22_11h39.36.650,EXNAT_3_fMRI_Psychopy2023.1.3,2023.1.3,75.03052701815521,
0,0,0,0,,,#D292F3,1014.5055298805237,69.31024193763733,None,None,None,994.2293962902814,text_07,54,1,1,1,Reading_Baseline_main_no_click,None,Das,,,,,OA01,001,no,1500,2000,195,250,500,2024-08-22_11h39.36.650,EXNAT_3_fMRI_Psychopy2023.1.3,2023.1.3,75.03052701815521,
0,0,0,0,,,#F989A2,1015.5052540302277,70.30996608734131,None,None,None,1050.3274004183786,text_07,55,1,1,1,Reading_Baseline_main_no_click,None,Team,,,,,OA01,001,no,1500,2000,195,250,500,2024-08-22_11h39.36.650,EXNAT_3_fMRI_Psychopy2023.1.3,2023.1.3,75.03052701815521,
0,0,0,0,,,#2AB7EF,1016.5583229064941,71.36303496360779,None,None,None,975.0,text_07,56,1,1,1,Reading_Baseline_main_no_click,None,um,,,,,OA01,001,no,1500,2000,195,250,500,2024-08-22_11h39.36.650,EXNAT_3_fMRI_Psychopy2023.1.3,2023.1.3,75.03052701815521,
0,0,0,0,,,#88BA3F,1017.5444228649139,72.34913492202759,None,None,None,994.2293962902814,text_07,57,1,1,1,Reading_Baseline_main_no_click,None,den,,,,,OA01,001,no,1500,2000,195,250,500,2024-08-22_11h39.36.650,EXNAT_3_fMRI_Psychopy2023.1.3,2023.1.3,75.03052701815521,
0,0,0,0,,,#F989A2,1018.5444629192352,73.34917497634888,None,None,None,1185.491100627568,text_07,58,1,1,1,Reading_Baseline_main_no_click,None,Forscher,,,,,OA01,001,no,1500,2000,195,250,500,2024-08-22_11h39.36.650,EXNAT_3_fMRI_Psychopy2023.1.3,2023.1.3,75.03052701815521,
0,0,0,0,,,#88BA3F,1019.7438158988953,74.54852795600891,None,None,None,1129.3930964994706,text_07,59,1,1,1,Reading_Baseline_main_no_click,None,Damian,,,,,OA01,001,no,1500,2000,195,250,500,2024-08-22_11h39.36.650,EXNAT_3_fMRI_Psychopy2023.1.3,2023.1.3,75.03052701815521,
0,0,0,0,,,#D292F3,1020.8773319721222,75.68204402923584,None,None,None,1093.8403929246497,text_07,60,1,1,1,Reading_Baseline_main_no_click,None,Evans,,,,,OA01,001,no,1500,2000,195,250,500,2024-08-22_11h39.36.650,EXNAT_3_fMRI_Psychopy2023.1.3,2023.1.3,75.03052701815521,
0,0,0,0,,,#D292F3,1021.9828898906708,76.78760194778442,None,None,None,994.2293962902814,text_07,61,1,1,1,Reading_Baseline_main_no_click,None,hat,,,,,OA01,001,no,1500,2000,195,250,500,2024-08-22_11h39.36.650,EXNAT_3_fMRI_Psychopy2023.1.3,2023.1.3,75.03052701815521,
0,0,0,0,,,#2AB7EF,1022.9825479984283,77.78726005554199,None,None,None,994.2293962902814,text_07,62,1,1,1,Reading_Baseline_main_no_click,None,nun,,,,,OA01,001,no,1500,2000,195,250,500,2024-08-22_11h39.36.650,EXNAT_3_fMRI_Psychopy2023.1.3,2023.1.3,75.03052701815521,
0,0,0,0,,,#F989A2,1023.9824018478394,78.787113904953,None,None,None,1185.491100627568,text_07,63,1,1,1,Reading_Baseline_main_no_click,None,erstmals,,,,,OA01,001,no,1500,2000,195,250,500,2024-08-22_11h39.36.650,EXNAT_3_fMRI_Psychopy2023.1.3,2023.1.3,75.03052701815521,
0,0,0,0,,,#88BA3F,1025.1821038722992,79.98681592941284,None,None,None,1050.3274004183786,text_07,64,1,1,1,Reading_Baseline_main_no_click,None,eine,,,,,OA01,001,no,1500,2000,195,250,500,2024-08-22_11h39.36.650,EXNAT_3_fMRI_Psychopy2023.1.3,2023.1.3,75.03052701815521,
0,0,0,0,,,#D292F3,1026.234855890274,81.0395679473877,None,None,None,1093.8403929246497,text_07,65,1,1,1,Reading_Baseline_main_no_click,None,Karte,,,,,OA01,001,no,1500,2000,195,250,500,2024-08-22_11h39.36.650,EXNAT_3_fMRI_Psychopy2023.1.3,2023.1.3,75.03052701815521,
0,0,0,0,,,#F989A2,1027.3410170078278,82.1457290649414,None,None,None,994.2293962902814,text_07,66,1,1,1,Reading_Baseline_main_no_click,None,von,,,,,OA01,001,no,1500,2000,195,250,500,2024-08-22_11h39.36.650,EXNAT_3_fMRI_Psychopy2023.1.3,2023.1.3,75.03052701815521,
0,0,0,0,,,#88BA3F,1028.3408000469208,83.14551210403442,None,None,None,1129.3930964994706,text_07,67,1,1,1,Reading_Baseline_main_no_click,None,Angkor,,,,,OA01,001,no,1500,2000,195,250,500,2024-08-22_11h39.36.650,EXNAT_3_fMRI_Psychopy2023.1.3,2023.1.3,75.03052701815521,
0,0,0,0,,,#D292F3,1029.4736070632935,84.2783191204071,None,None,None,994.2293962902814,text_07,68,1,1,1,Reading_Baseline_main_no_click,None,Wat,,,,,OA01,001,no,1500,2000,195,250,500,2024-08-22_11h39.36.650,EXNAT_3_fMRI_Psychopy2023.1.3,2023.1.3,75.03052701815521,
0,0,0,0,,,#F989A2,1030.4734590053558,85.27817106246948,None,None,None,1208.4587925805629,text_07,69,1,1,1,Reading_Baseline_main_no_click,None,erstellt.,,,,,OA01,001,no,1500,2000,195,250,500,2024-08-22_11h39.36.650,EXNAT_3_fMRI_Psychopy2023.1.3,2023.1.3,75.03052701815521,
0,0,0,0,,,#2AB7EF,1031.6861119270325,86.49082398414612,None,None,None,994.2293962902814,text_07,70,1,1,1,Reading_Baseline_main_no_click,None,Die,,,,,OA01,001,no,1500,2000,195,250,500,2024-08-22_11h39.36.650,EXNAT_3_fMRI_Psychopy2023.1.3,2023.1.3,75.03052701815521,
0,0,0,0,,,#88BA3F,1032.6860480308533,87.49076008796692,None,None,None,1093.8403929246497,text_07,71,1,1,1,Reading_Baseline_main_no_click,None,Karte,,,,,OA01,001,no,1500,2000,195,250,500,2024-08-22_11h39.36.650,EXNAT_3_fMRI_Psychopy2023.1.3,2023.1.3,75.03052701815521,
0,0,0,0,,,#2AB7EF,1033.7925000190735,88.59721207618713,None,None,None,1129.3930964994706,text_07,72,1,1,1,Reading_Baseline_main_no_click,None,"zeigt,",,,,,OA01,001,no,1500,2000,195,250,500,2024-08-22_11h39.36.650,EXNAT_3_fMRI_Psychopy2023.1.3,2023.1.3,75.03052701815521,
0,0,0,0,,,#88BA3F,1034.925281047821,89.72999310493469,None,None,None,1050.3274004183786,text_07,73,1,1,1,Reading_Baseline_main_no_click,None,dass,,,,,OA01,001,no,1500,2000,195,250,500,2024-08-22_11h39.36.650,EXNAT_3_fMRI_Psychopy2023.1.3,2023.1.3,75.03052701815521,
0,0,0,0,,,#D292F3,1035.9784879684448,90.78320002555847,None,None,None,1129.3930964994706,text_07,74,1,1,1,Reading_Baseline_main_no_click,None,Angkor,,,,,OA01,001,no,1500,2000,195,250,500,2024-08-22_11h39.36.650,EXNAT_3_fMRI_Psychopy2023.1.3,2023.1.3,75.03052701815521,
0,0,0,0,,,#2AB7EF,1037.1112718582153,91.91598391532898,None,None,None,994.2293962902814,text_07,75,1,1,1,Reading_Baseline_main_no_click,None,Wat,,,,,OA01,001,no,1500,2000,195,250,500,2024-08-22_11h39.36.650,EXNAT_3_fMRI_Psychopy2023.1.3,2023.1.3,75.03052701815521,
0,0,0,0,,,#2AB7EF,1038.1109828948975,92.91569495201111,None,None,None,1050.3274004183786,text_07,76,1,1,1,Reading_Baseline_main_no_click,None,eine,,,,,OA01,001,no,1500,2000,195,250,500,2024-08-22_11h39.36.650,EXNAT_3_fMRI_Psychopy2023.1.3,2023.1.3,75.03052701815521,
0,0,0,0,,,#2AB7EF,1039.1641750335693,93.96888709068298,None,None,None,1185.491100627568,text_07,77,1,1,1,Reading_Baseline_main_no_click,None,richtige,,,,,OA01,001,no,1500,2000,195,250,500,2024-08-22_11h39.36.650,EXNAT_3_fMRI_Psychopy2023.1.3,2023.1.3,75.03052701815521,
0,0,0,0,,,#D292F3,1040.363440990448,95.16815304756165,None,None,None,1093.8403929246497,text_07,78,1,1,1,Reading_Baseline_main_no_click,None,Stadt,,,,,OA01,001,no,1500,2000,195,250,500,2024-08-22_11h39.36.650,EXNAT_3_fMRI_Psychopy2023.1.3,2023.1.3,75.03052701815521,
0,0,0,0,,,#88BA3F,1041.4696969985962,96.27440905570984,None,None,None,1050.3274004183786,text_07,79,1,1,1,Reading_Baseline_main_no_click,None,"war,",,,,,OA01,001,no,1500,2000,195,250,500,2024-08-22_11h39.36.650,EXNAT_3_fMRI_Psychopy2023.1.3,2023.1.3,75.03052701815521,
0,0,0,0,,,#F989A2,1042.5227189064026,97.32743096351624,None,None,None,1093.8403929246497,text_07,80,1,1,1,Reading_Baseline_main_no_click,None,nicht,,,,,OA01,001,no,1500,2000,195,250,500,2024-08-22_11h39.36.650,EXNAT_3_fMRI_Psychopy2023.1.3,2023.1.3,75.03052701815521,
0,0,0,0,,,#88BA3F,1043.628877878189,98.43358993530273,None,None,None,994.2293962902814,text_07,81,1,1,1,Reading_Baseline_main_no_click,None,nur,,,,,OA01,001,no,1500,2000,195,250,500,2024-08-22_11h39.36.650,EXNAT_3_fMRI_Psychopy2023.1.3,2023.1.3,75.03052701815521,
0,0,0,0,,,#F989A2,1044.628574848175,99.4332869052887,None,None,None,1050.3274004183786,text_07,82,1,1,1,Reading_Baseline_main_no_click,None,eine,,,,,OA01,001,no,1500,2000,195,250,500,2024-08-22_11h39.36.650,EXNAT_3_fMRI_Psychopy2023.1.3,2023.1.3,75.03052701815521,
0,0,0,0,,,#2AB7EF,1045.68199801445,100.48671007156372,None,None,None,1129.3930964994706,text_07,83,1,1,1,Reading_Baseline_main_no_click,None,kleine,,,,,OA01,001,no,1500,2000,195,250,500,2024-08-22_11h39.36.650,EXNAT_3_fMRI_Psychopy2023.1.3,2023.1.3,75.03052701815521,
0,0,0,0,,,#D292F3,1046.8146698474884,101.61938190460205,None,None,None,1280.1651247049997,text_07,84,1,1,1,Reading_Baseline_main_no_click,None,Tempelanlage.,,,,,OA01,001,no,1500,2000,195,250,500,2024-08-22_11h39.36.650,EXNAT_3_fMRI_Psychopy2023.1.3,2023.1.3,75.03052701815521,
0,0,0,0,,,#F989A2,1048.1072978973389,102.91200995445251,None,None,None,994.2293962902814,text_07,85,1,1,1,Reading_Baseline_main_no_click,None,Die,,,,,OA01,001,no,1500,2000,195,250,500,2024-08-22_11h39.36.650,EXNAT_3_fMRI_Psychopy2023.1.3,2023.1.3,75.03052701815521,
0,0,0,0,,,#88BA3F,1049.1072399616241,103.9119520187378,None,None,None,1185.491100627568,text_07,86,1,1,1,Reading_Baseline_main_no_click,None,Forscher,,,,,OA01,001,no,1500,2000,195,250,500,2024-08-22_11h39.36.650,EXNAT_3_fMRI_Psychopy2023.1.3,2023.1.3,75.03052701815521,
0,0,0,0,,,#F989A2,1050.306529045105,105.11124110221863,None,None,None,1093.8403929246497,text_07,87,1,1,1,Reading_Baseline_main_no_click,None,gehen,,,,,OA01,001,no,1500,2000,195,250,500,2024-08-22_11h39.36.650,EXNAT_3_fMRI_Psychopy2023.1.3,2023.1.3,75.03052701815521,
0,0,0,0,,,#D292F3,1051.4130029678345,106.21771502494812,None,None,None,1093.8403929246497,text_07,88,1,1,1,Reading_Baseline_main_no_click,None,davon,,,,,OA01,001,no,1500,2000,195,250,500,2024-08-22_11h39.36.650,EXNAT_3_fMRI_Psychopy2023.1.3,2023.1.3,75.03052701815521,
0,0,0,0,,,#88BA3F,1052.5187990665436,107.32351112365723,None,None,None,1050.3274004183786,text_07,89,1,1,1,Reading_Baseline_main_no_click,None,"aus,",,,,,OA01,001,no,1500,2000,195,250,500,2024-08-22_11h39.36.650,EXNAT_3_fMRI_Psychopy2023.1.3,2023.1.3,75.03052701815521,
0,0,0,0,,,#2AB7EF,1053.571781873703,108.37649393081665,None,None,None,1050.3274004183786,text_07,90,1,1,1,Reading_Baseline_main_no_click,None,dass,,,,,OA01,001,no,1500,2000,195,250,500,2024-08-22_11h39.36.650,EXNAT_3_fMRI_Psychopy2023.1.3,2023.1.3,75.03052701815521,
0,0,0,0,,,#F989A2,1054.6247310638428,109.42944312095642,None,None,None,1050.3274004183786,text_07,91,1,1,1,Reading_Baseline_main_no_click,None,ihre,,,,,OA01,001,no,1500,2000,195,250,500,2024-08-22_11h39.36.650,EXNAT_3_fMRI_Psychopy2023.1.3,2023.1.3,75.03052701815521,
0,0,0,0,,,#D292F3,1055.679090976715,110.48380303382874,None,None,None,1093.8403929246497,text_07,92,1,1,1,Reading_Baseline_main_no_click,None,Größe,,,,,OA01,001,no,1500,2000,195,250,500,2024-08-22_11h39.36.650,EXNAT_3_fMRI_Psychopy2023.1.3,2023.1.3,75.03052701815521,
0,0,0,0,,,#2AB7EF,1056.7841980457306,111.58891010284424,None,None,None,1093.8403929246497,text_07,93,1,1,1,Reading_Baseline_main_no_click,None,sogar,,,,,OA01,001,no,1500,2000,195,250,500,2024-08-22_11h39.36.650,EXNAT_3_fMRI_Psychopy2023.1.3,2023.1.3,75.03052701815521,
0,0,0,0,,,#D292F3,1057.8907358646393,112.69544792175293,None,None,None,994.2293962902814,text_07,94,1,1,1,Reading_Baseline_main_no_click,None,New,,,,,OA01,001,no,1500,2000,195,250,500,2024-08-22_11h39.36.650,EXNAT_3_fMRI_Psychopy2023.1.3,2023.1.3,75.03052701815521,
0,0,0,0,,,#88BA3F,1058.890419960022,113.69513201713562,None,None,None,1050.3274004183786,text_07,95,1,1,1,Reading_Baseline_main_no_click,None,York,,,,,OA01,001,no,1500,2000,195,250,500,2024-08-22_11h39.36.650,EXNAT_3_fMRI_Psychopy2023.1.3,2023.1.3,75.03052701815521,
0,0,0,0,,,#2AB7EF,1059.9432489871979,114.74796104431152,None,None,None,1247.5895781956824,text_07,96,1,1,1,Reading_Baseline_main_no_click,None,übertroffen,,,,,OA01,001,no,1500,2000,195,250,500,2024-08-22_11h39.36.650,EXNAT_3_fMRI_Psychopy2023.1.3,2023.1.3,75.03052701815521,
0,0,0,0,,,#2AB7EF,1061.1964468955994,116.00115895271301,None,None,None,1093.8403929246497,text_07,97,1,1,1,Reading_Baseline_main_no_click,None,haben,,,,,OA01,001,no,1500,2000,195,250,500,2024-08-22_11h39.36.650,EXNAT_3_fMRI_Psychopy2023.1.3,2023.1.3,75.03052701815521,
0,0,0,0,,,#D292F3,1062.3028008937836,117.10751295089722,None,None,None,1159.452479065786,text_07,98,1,1,1,Reading_Baseline_main_no_click,None,könnte.,,,,,OA01,001,no,1500,2000,195,250,500,2024-08-22_11h39.36.650,EXNAT_3_fMRI_Psychopy2023.1.3,2023.1.3,75.03052701815521,
0,0,0,0,,,#88BA3F,1063.475623846054,118.28033590316772,None,None,None,1093.8403929246497,text_07,99,1,1,1,Reading_Baseline_main_no_click,None,Damit,,,,,OA01,001,no,1500,2000,195,250,500,2024-08-22_11h39.36.650,EXNAT_3_fMRI_Psychopy2023.1.3,2023.1.3,75.03052701815521,
0,0,0,0,,,#88BA3F,1064.5812718868256,119.38598394393921,None,None,None,994.2293962902814,text_07,100,1,1,1,Reading_Baseline_main_no_click,None,ist,,,,,OA01,001,no,1500,2000,195,250,500,2024-08-22_11h39.36.650,EXNAT_3_fMRI_Psychopy2023.1.3,2023.1.3,75.03052701815521,
0,0,0,0,,,#F989A2,1065.5820610523224,120.38677310943604,None,None,None,1280.1651247049997,text_07,101,1,1,1,Reading_Baseline_main_no_click,None,""Groß-Angkor"",,,,,OA01,001,no,1500,2000,195,250,500,2024-08-22_11h39.36.650,EXNAT_3_fMRI_Psychopy2023.1.3,2023.1.3,75.03052701815521,
0,0,0,0,,,#88BA3F,1066.8737349510193,121.67844700813293,None,None,None,994.2293962902814,text_07,102,1,1,1,Reading_Baseline_main_no_click,None,die,,,,,OA01,001,no,1500,2000,195,250,500,2024-08-22_11h39.36.650,EXNAT_3_fMRI_Psychopy2023.1.3,2023.1.3,75.03052701815521,
0,0,0,0,,,#2AB7EF,1067.873363018036,122.67807507514954,None,None,None,994.2293962902814,text_07,103,1,1,1,Reading_Baseline_main_no_click,None,mit,,,,,OA01,001,no,1500,2000,195,250,500,2024-08-22_11h39.36.650,EXNAT_3_fMRI_Psychopy2023.1.3,2023.1.3,75.03052701815521,
0,0,0,0,,,#D292F3,1068.8732209205627,123.67793297767639,None,None,None,1159.452479065786,text_07,104,1,1,1,Reading_Baseline_main_no_click,None,Abstand,,,,,OA01,001,no,1500,2000,195,250,500,2024-08-22_11h39.36.650,EXNAT_3_fMRI_Psychopy2023.1.3,2023.1.3,75.03052701815521,
0,0,0,0,,,#F989A2,1070.0463738441467,124.85108590126038,None,None,None,1129.3930964994706,text_07,105,1,1,1,Reading_Baseline_main_no_click,None,größte,,,,,OA01,001,no,1500,2000,195,250,500,2024-08-22_11h39.36.650,EXNAT_3_fMRI_Psychopy2023.1.3,2023.1.3,75.03052701815521,
0,0,0,0,,,#2AB7EF,1071.1791949272156,125.98390698432922,None,None,None,1308.069789214931,text_07,106,1,1,1,Reading_Baseline_main_no_click,None,vorindustrielle,,,,,OA01,001,no,1500,2000,195,250,500,2024-08-22_11h39.36.650,EXNAT_3_fMRI_Psychopy2023.1.3,2023.1.3,75.03052701815521,
0,0,0,0,,,#F989A2,1072.4989359378815,127.30364799499512,None,None,None,1185.491100627568,text_07,107,1,1,1,Reading_Baseline_main_no_click,None,Siedlung,,,,,OA01,001,no,1500,2000,195,250,500,2024-08-22_11h39.36.650,EXNAT_3_fMRI_Psychopy2023.1.3,2023.1.3,75.03052701815521,
0,0,0,0,,,#D292F3,1073.698098897934,128.5028109550476,None,None,None,994.2293962902814,text_07,108,1,1,1,Reading_Baseline_main_no_click,None,der,,,,,OA01,001,no,1500,2000,195,250,500,2024-08-22_11h39.36.650,EXNAT_3_fMRI_Psychopy2023.1.3,2023.1.3,75.03052701815521,
0,0,0,0,,,#88BA3F,1074.6979439258575,129.5026559829712,None,None,None,1093.8403929246497,text_07,109,1,1,1,Reading_Baseline_main_no_click,None,Welt.,,,,,OA01,001,no,1500,2000,195,250,500,2024-08-22_11h39.36.650,EXNAT_3_fMRI_Psychopy2023.1.3,2023.1.3,75.03052701815521,
0,0,0,0,,,#F989A2,1075.8041260242462,130.60883808135986,None,None,None,1129.3930964994706,text_07,110,1,1,1,Reading_Baseline_main_no_click,None,Selbst,,,,,OA01,001,no,1500,2000,195,250,500,2024-08-22_11h39.36.650,EXNAT_3_fMRI_Psychopy2023.1.3,2023.1.3,75.03052701815521,
0,0,0,0,,,#D292F3,1076.936863899231,131.7415759563446,None,None,None,994.2293962902814,text_07,111,1,1,1,Reading_Baseline_main_no_click,None,die,,,,,OA01,001,no,1500,2000,195,250,500,2024-08-22_11h39.36.650,EXNAT_3_fMRI_Psychopy2023.1.3,2023.1.3,75.03052701815521,
0,0,0,0,,,#88BA3F,1077.9367809295654,132.74149298667908,None,None,None,1185.491100627568,text_07,112,1,1,1,Reading_Baseline_main_no_click,None,riesigen,,,,,OA01,001,no,1500,2000,195,250,500,2024-08-22_11h39.36.650,EXNAT_3_fMRI_Psychopy2023.1.3,2023.1.3,75.03052701815521,
0,0,0,0,,,#F989A2,1079.1371638774872,133.94187593460083,None,None,None,1129.3930964994706,text_07,113,1,1,1,Reading_Baseline_main_no_click,None,Städte,,,,,OA01,001,no,1500,2000,195,250,500,2024-08-22_11h39.36.650,EXNAT_3_fMRI_Psychopy2023.1.3,2023.1.3,75.03052701815521,
0,0,0,0,,,#D292F3,1080.2691860198975,135.0738980770111,None,None,None,994.2293962902814,text_07,114,1,1,1,Reading_Baseline_main_no_click,None,der,,,,,OA01,001,no,1500,2000,195,250,500,2024-08-22_11h39.36.650,EXNAT_3_fMRI_Psychopy2023.1.3,2023.1.3,75.03052701815521,
0,0,0,0,,,#88BA3F,1081.2701029777527,136.07481503486633,None,None,None,1050.3274004183786,text_07,115,1,1,1,Reading_Baseline_main_no_click,None,Maya,,,,,OA01,001,no,1500,2000,195,250,500,2024-08-22_11h39.36.650,EXNAT_3_fMRI_Psychopy2023.1.3,2023.1.3,75.03052701815521,
0,0,0,0,,,#2AB7EF,1082.3355090618134,137.140221118927,None,None,None,1229.004093133839,text_07,116,1,1,1,Reading_Baseline_main_no_click,None,erscheinen,,,,,OA01,001,no,1500,2000,195,250,500,2024-08-22_11h39.36.650,EXNAT_3_fMRI_Psychopy2023.1.3,2023.1.3,75.03052701815521,
0,0,0,0,,,#D292F3,1083.5748929977417,138.37960505485535,None,None,None,1159.452479065786,text_07,117,1,1,1,Reading_Baseline_main_no_click,None,dagegen,,,,,OA01,001,no,1500,2000,195,250,500,2024-08-22_11h39.36.650,EXNAT_3_fMRI_Psychopy2023.1.3,2023.1.3,75.03052701815521,
0,0,0,0,,,#88BA3F,1084.7481088638306,139.5528209209442,None,None,None,1159.452479065786,text_07,118,1,1,1,Reading_Baseline_main_no_click,None,winzig.,,,,,OA01,001,no,1500,2000,195,250,500,2024-08-22_11h39.36.650,EXNAT_3_fMRI_Psychopy2023.1.3,2023.1.3,75.03052701815521,
0,0,0,0,,,#D292F3,1085.9204759597778,140.72518801689148,None,None,None,994.2293962902814,text_07,119,1,1,1,Reading_Baseline_main_no_click,None,Die,,,,,OA01,001,no,1500,2000,195,250,500,2024-08-22_11h39.36.650,EXNAT_3_fMRI_Psychopy2023.1.3,2023.1.3,75.03052701815521,
0,0,0,0,,,#2AB7EF,1086.9204189777374,141.72513103485107,None,None,None,1185.491100627568,text_07,120,1,1,1,Reading_Baseline_main_no_click,None,Forscher,,,,,OA01,001,no,1500,2000,195,250,500,2024-08-22_11h39.36.650,EXNAT_3_fMRI_Psychopy2023.1.3,2023.1.3,75.03052701815521,
0,0,0,0,,,#F989A2,1088.1197938919067,142.92450594902039,None,None,None,1129.3930964994706,text_07,121,1,1,1,Reading_Baseline_main_no_click,None,fanden,,,,,OA01,001,no,1500,2000,195,250,500,2024-08-22_11h39.36.650,EXNAT_3_fMRI_Psychopy2023.1.3,2023.1.3,75.03052701815521,
0,0,0,0,,,#D292F3,1089.2531740665436,144.05788612365723,None,None,None,1185.491100627568,text_07,122,1,1,1,Reading_Baseline_main_no_click,None,außerdem,,,,,OA01,001,no,1500,2000,195,250,500,2024-08-22_11h39.36.650,EXNAT_3_fMRI_Psychopy2023.1.3,2023.1.3,75.03052701815521,
0,0,0,0,,,#88BA3F,1090.4523000717163,145.25701212882996,None,None,None,1159.452479065786,text_07,123,1,1,1,Reading_Baseline_main_no_click,None,"heraus,",,,,,OA01,001,no,1500,2000,195,250,500,2024-08-22_11h39.36.650,EXNAT_3_fMRI_Psychopy2023.1.3,2023.1.3,75.03052701815521,
0,0,0,0,,,#D292F3,1091.6252899169922,146.43000197410583,None,None,None,1050.3274004183786,text_07,124,1,1,1,Reading_Baseline_main_no_click,None,dass,,,,,OA01,001,no,1500,2000,195,250,500,2024-08-22_11h39.36.650,EXNAT_3_fMRI_Psychopy2023.1.3,2023.1.3,75.03052701815521,
0,0,0,0,,,#88BA3F,1092.6784119606018,147.48312401771545,None,None,None,1129.3930964994706,text_07,125,1,1,1,Reading_Baseline_main_no_click,None,Angkor,,,,,OA01,001,no,1500,2000,195,250,500,2024-08-22_11h39.36.650,EXNAT_3_fMRI_Psychopy2023.1.3,2023.1.3,75.03052701815521,
0,0,0,0,,,#F989A2,1093.8109278678894,148.61563992500305,None,None,None,1050.3274004183786,text_07,126,1,1,1,Reading_Baseline_main_no_click,None,eine,,,,,OA01,001,no,1500,2000,195,250,500,2024-08-22_11h39.36.650,EXNAT_3_fMRI_Psychopy2023.1.3,2023.1.3,75.03052701815521,
0,0,0,0,,,#F989A2,1094.8644218444824,149.66913390159607,None,None,None,1264.55679670866,text_07,127,1,1,1,Reading_Baseline_main_no_click,None,hydraulische,,,,,OA01,001,no,1500,2000,195,250,500,2024-08-22_11h39.36.650,EXNAT_3_fMRI_Psychopy2023.1.3,2023.1.3,75.03052701815521,
0,0,0,0,,,#2AB7EF,1096.1435749530792,150.94828701019287,None,None,None,1093.8403929246497,text_07,128,1,1,1,Reading_Baseline_main_no_click,None,Stadt,,,,,OA01,001,no,1500,2000,195,250,500,2024-08-22_11h39.36.650,EXNAT_3_fMRI_Psychopy2023.1.3,2023.1.3,75.03052701815521,
0,0,0,0,,,#88BA3F,1097.2498610019684,152.05457305908203,None,None,None,1050.3274004183786,text_07,129,1,1,1,Reading_Baseline_main_no_click,None,war.,,,,,OA01,001,no,1500,2000,195,250,500,2024-08-22_11h39.36.650,EXNAT_3_fMRI_Psychopy2023.1.3,2023.1.3,75.03052701815521,
0,0,0,0,,,#2AB7EF,1098.3026719093323,153.10738396644592,None,None,None,1050.3274004183786,text_07,130,1,1,1,Reading_Baseline_main_no_click,None,Dank,,,,,OA01,001,no,1500,2000,195,250,500,2024-08-22_11h39.36.650,EXNAT_3_fMRI_Psychopy2023.1.3,2023.1.3,75.03052701815521,
0,0,0,0,,,#2AB7EF,1099.3560349941254,154.160747051239,None,None,None,1093.8403929246497,text_07,131,1,1,1,Reading_Baseline_main_no_click,None,eines,,,,,OA01,001,no,1500,2000,195,250,500,2024-08-22_11h39.36.650,EXNAT_3_fMRI_Psychopy2023.1.3,2023.1.3,75.03052701815521,
0,0,0,0,,,#88BA3F,1100.4624390602112,155.26715111732483,None,None,None,1280.1651247049997,text_07,132,1,1,1,Reading_Baseline_main_no_click,None,komplizierten,,,,,OA01,001,no,1500,2000,195,250,500,2024-08-22_11h39.36.650,EXNAT_3_fMRI_Psychopy2023.1.3,2023.1.3,75.03052701815521,
0,0,0,0,,,#D292F3,1101.7555248737335,156.56023693084717,None,None,None,1354.165600937456,text_07,133,1,1,1,Reading_Baseline_main_no_click,None,Bewässerungssystems,,,,,OA01,001,no,1500,2000,195,250,500,2024-08-22_11h39.36.650,EXNAT_3_fMRI_Psychopy2023.1.3,2023.1.3,75.03052701815521,
0,0,0,0,,,#88BA3F,1103.1145129203796,157.9192249774933,None,None,None,1159.452479065786,text_07,134,1,1,1,Reading_Baseline_main_no_click,None,konnten,,,,,OA01,001,no,1500,2000,195,250,500,2024-08-22_11h39.36.650,EXNAT_3_fMRI_Psychopy2023.1.3,2023.1.3,75.03052701815521,
0,0,0,0,,,#88BA3F,1104.2871809005737,159.09189295768738,None,None,None,994.2293962902814,text_07,135,1,1,1,Reading_Baseline_main_no_click,None,die,,,,,OA01,001,no,1500,2000,195,250,500,2024-08-22_11h39.36.650,EXNAT_3_fMRI_Psychopy2023.1.3,2023.1.3,75.03052701815521,
0,0,0,0,,,#88BA3F,1105.2868490219116,160.09156107902527,None,None,None,1050.3274004183786,text_07,136,1,1,1,Reading_Baseline_main_no_click,None,mehr,,,,,OA01,001,no,1500,2000,195,250,500,2024-08-22_11h39.36.650,EXNAT_3_fMRI_Psychopy2023.1.3,2023.1.3,75.03052701815521,
0,0,0,0,,,#F989A2,1106.339781999588,161.14449405670166,None,None,None,994.2293962902814,text_07,137,1,1,1,Reading_Baseline_main_no_click,None,als,,,,,OA01,001,no,1500,2000,195,250,500,2024-08-22_11h39.36.650,EXNAT_3_fMRI_Psychopy2023.1.3,2023.1.3,75.03052701815521,
0,0,0,0,,,#D292F3,1107.3394539356232,162.14416599273682,None,None,None,1050.3274004183786,text_07,138,1,1,1,Reading_Baseline_main_no_click,None,eine,,,,,OA01,001,no,1500,2000,195,250,500,2024-08-22_11h39.36.650,EXNAT_3_fMRI_Psychopy2023.1.3,2023.1.3,75.03052701815521,
0,0,0,0,,,#2AB7EF,1108.3933460712433,163.19805812835693,None,None,None,1159.452479065786,text_07,139,1,1,1,Reading_Baseline_main_no_click,None,Million,,,,,OA01,001,no,1500,2000,195,250,500,2024-08-22_11h39.36.650,EXNAT_3_fMRI_Psychopy2023.1.3,2023.1.3,75.03052701815521,
0,0,0,0,,,#2AB7EF,1109.5658540725708,164.37056612968445,None,None,None,1185.491100627568,text_07,140,1,1,1,Reading_Baseline_main_no_click,None,Bewohner,,,,,OA01,001,no,1500,2000,195,250,500,2024-08-22_11h39.36.650,EXNAT_3_fMRI_Psychopy2023.1.3,2023.1.3,75.03052701815521,
0,0,0,0,,,#F989A2,1110.765366077423,165.57007813453674,None,None,None,1185.491100627568,text_07,141,1,1,1,Reading_Baseline_main_no_click,None,versorgt,,,,,OA01,001,no,1500,2000,195,250,500,2024-08-22_11h39.36.650,EXNAT_3_fMRI_Psychopy2023.1.3,2023.1.3,75.03052701815521,
0,0,0,0,,,#D292F3,1111.9647550582886,166.76946711540222,None,None,None,1159.452479065786,text_07,142,1,1,1,Reading_Baseline_main_no_click,None,werden.,,,,,OA01,001,no,1500,2000,195,250,500,2024-08-22_11h39.36.650,EXNAT_3_fMRI_Psychopy2023.1.3,2023.1.3,75.03052701815521,
0,0,0,0,,,#88BA3F,1113.1375210285187,167.94223308563232,None,None,None,1093.8403929246497,text_07,143,1,1,1,Reading_Baseline_main_no_click,None,Durch,,,,,OA01,001,no,1500,2000,195,250,500,2024-08-22_11h39.36.650,EXNAT_3_fMRI_Psychopy2023.1.3,2023.1.3,75.03052701815521,
0,0,0,0,,,#2AB7EF,1114.24374294281,169.0484549999237,None,None,None,994.2293962902814,text_07,144,1,1,1,Reading_Baseline_main_no_click,None,das,,,,,OA01,001,no,1500,2000,195,250,500,2024-08-22_11h39.36.650,EXNAT_3_fMRI_Psychopy2023.1.3,2023.1.3,75.03052701815521,
0,0,0,0,,,#2AB7EF,1115.2435178756714,170.04822993278503,None,None,None,1159.452479065786,text_07,145,1,1,1,Reading_Baseline_main_no_click,None,riesige,,,,,OA01,001,no,1500,2000,195,250,500,2024-08-22_11h39.36.650,EXNAT_3_fMRI_Psychopy2023.1.3,2023.1.3,75.03052701815521,
0,0,0,0,,,#F989A2,1116.4165358543396,171.22124791145325,None,None,None,1050.3274004183786,text_07,146,1,1,1,Reading_Baseline_main_no_click,None,Netz,,,,,OA01,001,no,1500,2000,195,250,500,2024-08-22_11h39.36.650,EXNAT_3_fMRI_Psychopy2023.1.3,2023.1.3,75.03052701815521,
0,0,0,0,,,#D292F3,1117.4694428443909,172.27415490150452,None,None,None,994.2293962902814,text_07,147,1,1,1,Reading_Baseline_main_no_click,None,aus,,,,,OA01,001,no,1500,2000,195,250,500,2024-08-22_11h39.36.650,EXNAT_3_fMRI_Psychopy2023.1.3,2023.1.3,75.03052701815521,
0,0,0,0,,,#88BA3F,1118.4692709445953,173.27398300170898,None,None,None,1185.491100627568,text_07,148,1,1,1,Reading_Baseline_main_no_click,None,"Flüssen,",,,,,OA01,001,no,1500,2000,195,250,500,2024-08-22_11h39.36.650,EXNAT_3_fMRI_Psychopy2023.1.3,2023.1.3,75.03052701815521,
0,0,0,0,,,#2AB7EF,1119.668928861618,174.4736409187317,None,None,None,1159.452479065786,text_07,149,1,1,1,Reading_Baseline_main_no_click,None,Kanälen,,,,,OA01,001,no,1500,2000,195,250,500,2024-08-22_11h39.36.650,EXNAT_3_fMRI_Psychopy2023.1.3,2023.1.3,75.03052701815521,
0,0,0,0,,,#F989A2,1120.8415849208832,175.64629697799683,None,None,None,994.2293962902814,text_07,150,1,1,1,Reading_Baseline_main_no_click,None,und,,,,,OA01,001,no,1500,2000,195,250,500,2024-08-22_11h39.36.650,EXNAT_3_fMRI_Psychopy2023.1.3,2023.1.3,75.03052701815521,
0,0,0,0,,,#D292F3,1121.841383934021,176.64609599113464,None,None,None,1185.491100627568,text_07,151,1,1,1,Reading_Baseline_main_no_click,None,Stauseen,,,,,OA01,001,no,1500,2000,195,250,500,2024-08-22_11h39.36.650,EXNAT_3_fMRI_Psychopy2023.1.3,2023.1.3,75.03052701815521,
0,0,0,0,,,#D292F3,1123.0407609939575,177.84547305107117,None,None,None,994.2293962902814,text_07,152,1,1,1,Reading_Baseline_main_no_click,None,hat,,,,,OA01,001,no,1500,2000,195,250,500,2024-08-22_11h39.36.650,EXNAT_3_fMRI_Psychopy2023.1.3,2023.1.3,75.03052701815521,
0,0,0,0,,,#2AB7EF,1124.0403158664703,178.84502792358398,None,None,None,994.2293962902814,text_07,153,1,1,1,Reading_Baseline_main_no_click,None,die,,,,,OA01,001,no,1500,2000,195,250,500,2024-08-22_11h39.36.650,EXNAT_3_fMRI_Psychopy2023.1.3,2023.1.3,75.03052701815521,
0,0,0,0,,,#F989A2,1125.0402028560638,179.8449149131775,None,None,None,1320.6548008367572,text_07,154,1,1,1,Reading_Baseline_main_no_click,None,mittelalterliche,,,,,OA01,001,no,1500,2000,195,250,500,2024-08-22_11h39.36.650,EXNAT_3_fMRI_Psychopy2023.1.3,2023.1.3,75.03052701815521,
0,0,0,0,,,#88BA3F,1126.3730719089508,181.17778396606445,None,None,None,1093.8403929246497,text_07,155,1,1,1,Reading_Baseline_main_no_click,None,Stadt,,,,,OA01,001,no,1500,2000,195,250,500,2024-08-22_11h39.36.650,EXNAT_3_fMRI_Psychopy2023.1.3,2023.1.3,75.03052701815521,
0,0,0,0,,,#F989A2,1127.4792079925537,182.28392004966736,None,None,None,1185.491100627568,text_07,156,1,1,1,Reading_Baseline_main_no_click,None,mehrmals,,,,,OA01,001,no,1500,2000,195,250,500,2024-08-22_11h39.36.650,EXNAT_3_fMRI_Psychopy2023.1.3,2023.1.3,75.03052701815521,
0,0,0,0,,,#D292F3,1128.6785399913788,183.48325204849243,None,None,None,975.0,text_07,157,1,1,1,Reading_Baseline_main_no_click,None,im,,,,,OA01,001,no,1500,2000,195,250,500,2024-08-22_11h39.36.650,EXNAT_3_fMRI_Psychopy2023.1.3,2023.1.3,75.03052701815521,
0,0,0,0,,,#2AB7EF,1129.6649160385132,184.46962809562683,None,None,None,1050.3274004183786,text_07,158,1,1,1,Reading_Baseline_main_no_click,None,Jahr,,,,,OA01,001,no,1500,2000,195,250,500,2024-08-22_11h39.36.650,EXNAT_3_fMRI_Psychopy2023.1.3,2023.1.3,75.03052701815521,
0,0,0,0,,,#F989A2,1130.7179119586945,185.5226240158081,None,None,None,1050.3274004183786,text_07,159,1,1,1,Reading_Baseline_main_no_click,None,Reis,,,,,OA01,001,no,1500,2000,195,250,500,2024-08-22_11h39.36.650,EXNAT_3_fMRI_Psychopy2023.1.3,2023.1.3,75.03052701815521,
0,0,0,0,,,#2AB7EF,1131.7710008621216,186.57571291923523,None,None,None,1129.3930964994706,text_07,160,1,1,1,Reading_Baseline_main_no_click,None,ernten,,,,,OA01,001,no,1500,2000,195,250,500,2024-08-22_11h39.36.650,EXNAT_3_fMRI_Psychopy2023.1.3,2023.1.3,75.03052701815521,
0,0,0,0,,,#D292F3,1132.9041850566864,187.70889711380005,None,None,None,1159.452479065786,text_07,161,1,1,1,Reading_Baseline_main_no_click,None,können.,,,,,OA01,001,no,1500,2000,195,250,500,2024-08-22_11h39.36.650,EXNAT_3_fMRI_Psychopy2023.1.3,2023.1.3,75.03052701815521,
0,0,0,0,,,#88BA3F,1134.0766880512238,188.8814001083374,None,None,None,994.2293962902814,text_07,162,1,1,1,Reading_Baseline_main_no_click,None,Das,,,,,OA01,001,no,1500,2000,195,250,500,2024-08-22_11h39.36.650,EXNAT_3_fMRI_Psychopy2023.1.3,2023.1.3,75.03052701815521,
0,0,0,0,,,#88BA3F,1135.0766098499298,189.88132190704346,None,None,None,1247.5895781956824,text_07,163,1,1,1,Reading_Baseline_main_no_click,None,verschaffte,,,,,OA01,001,no,1500,2000,195,250,500,2024-08-22_11h39.36.650,EXNAT_3_fMRI_Psychopy2023.1.3,2023.1.3,75.03052701815521,
0,0,0,0,,,#F989A2,1136.329442024231,191.1341540813446,None,None,None,994.2293962902814,text_07,164,1,1,1,Reading_Baseline_main_no_click,None,den,,,,,OA01,001,no,1500,2000,195,250,500,2024-08-22_11h39.36.650,EXNAT_3_fMRI_Psychopy2023.1.3,2023.1.3,75.03052701815521,
0,0,0,0,,,#88BA3F,1137.3293550014496,192.13406705856323,None,None,None,1208.4587925805629,text_07,165,1,1,1,Reading_Baseline_main_no_click,None,Bewohnern,,,,,OA01,001,no,1500,2000,195,250,500,2024-08-22_11h39.36.650,EXNAT_3_fMRI_Psychopy2023.1.3,2023.1.3,75.03052701815521,
0,0,0,0,,,#D292F3,1138.541908979416,193.34662103652954,None,None,None,1093.8403929246497,text_07,166,1,1,1,Reading_Baseline_main_no_click,None,nicht,,,,,OA01,001,no,1500,2000,195,250,500,2024-08-22_11h39.36.650,EXNAT_3_fMRI_Psychopy2023.1.3,2023.1.3,75.03052701815521,
0,0,0,0,,,#2AB7EF,1139.6480250358582,194.4527370929718,None,None,None,994.2293962902814,text_07,167,1,1,1,Reading_Baseline_main_no_click,None,nur,,,,,OA01,001,no,1500,2000,195,250,500,2024-08-22_11h39.36.650,EXNAT_3_fMRI_Psychopy2023.1.3,2023.1.3,75.03052701815521,
0,0,0,0,,,#2AB7EF,1140.647850036621,195.45256209373474,None,None,None,1093.8403929246497,text_07,168,1,1,1,Reading_Baseline_main_no_click,None,volle,,,,,OA01,001,no,1500,2000,195,250,500,2024-08-22_11h39.36.650,EXNAT_3_fMRI_Psychopy2023.1.3,2023.1.3,75.03052701815521,
0,0,0,0,,,#2AB7EF,1141.7541589736938,196.5588710308075,None,None,None,1159.452479065786,text_07,169,1,1,1,Reading_Baseline_main_no_click,None,"Teller,",,,,,OA01,001,no,1500,2000,195,250,500,2024-08-22_11h39.36.650,EXNAT_3_fMRI_Psychopy2023.1.3,2023.1.3,75.03052701815521,
0,0,0,0,,,#D292F3,1142.927118062973,197.73183012008667,None,None,None,1159.452479065786,text_07,170,1,1,1,Reading_Baseline_main_no_click,None,sondern,,,,,OA01,001,no,1500,2000,195,250,500,2024-08-22_11h39.36.650,EXNAT_3_fMRI_Psychopy2023.1.3,2023.1.3,75.03052701815521,
0,0,0,0,,,#88BA3F,1144.099837064743,198.9045491218567,None,None,None,1050.3274004183786,text_07,171,1,1,1,Reading_Baseline_main_no_click,None,auch,,,,,OA01,001,no,1500,2000,195,250,500,2024-08-22_11h39.36.650,EXNAT_3_fMRI_Psychopy2023.1.3,2023.1.3,75.03052701815521,
0,0,0,0,,,#F989A2,1145.1529250144958,199.9576370716095,None,None,None,1093.8403929246497,text_07,172,1,1,1,Reading_Baseline_main_no_click,None,einen,,,,,OA01,001,no,1500,2000,195,250,500,2024-08-22_11h39.36.650,EXNAT_3_fMRI_Psychopy2023.1.3,2023.1.3,75.03052701815521,
0,0,0,0,,,#88BA3F,1146.2594270706177,201.06413912773132,None,None,None,1159.452479065786,text_07,173,1,1,1,Reading_Baseline_main_no_click,None,enormen,,,,,OA01,001,no,1500,2000,195,250,500,2024-08-22_11h39.36.650,EXNAT_3_fMRI_Psychopy2023.1.3,2023.1.3,75.03052701815521,
0,0,0,0,,,#2AB7EF,1147.4322249889374,202.23693704605103,None,None,None,1208.4587925805629,text_07,174,1,1,1,Reading_Baseline_main_no_click,None,Reichtum.,,,,,OA01,001,no,1500,2000,195,250,500,2024-08-22_11h39.36.650,EXNAT_3_fMRI_Psychopy2023.1.3,2023.1.3,75.03052701815521,
0,0,0,0,,,#F989A2,1148.6449790000916,203.4496910572052,None,None,None,994.2293962902814,text_07,175,1,1,1,Reading_Baseline_main_no_click,None,Die,,,,,OA01,001,no,1500,2000,195,250,500,2024-08-22_11h39.36.650,EXNAT_3_fMRI_Psychopy2023.1.3,2023.1.3,75.03052701815521,
0,0,0,0,,,#2AB7EF,1149.6447830200195,204.44949507713318,None,None,None,1093.8403929246497,text_07,176,1,1,1,Reading_Baseline_main_no_click,None,Stadt,,,,,OA01,001,no,1500,2000,195,250,500,2024-08-22_11h39.36.650,EXNAT_3_fMRI_Psychopy2023.1.3,2023.1.3,75.03052701815521,
0,0,0,0,,,#88BA3F,1150.7511730194092,205.55588507652283,None,None,None,1093.8403929246497,text_07,177,1,1,1,Reading_Baseline_main_no_click,None,umgab,,,,,OA01,001,no,1500,2000,195,250,500,2024-08-22_11h39.36.650,EXNAT_3_fMRI_Psychopy2023.1.3,2023.1.3,75.03052701815521,
0,0,0,0,,,#D292F3,1151.857295036316,206.66200709342957,None,None,None,994.2293962902814,text_07,178,1,1,1,Reading_Baseline_main_no_click,None,ein,,,,,OA01,001,no,1500,2000,195,250,500,2024-08-22_11h39.36.650,EXNAT_3_fMRI_Psychopy2023.1.3,2023.1.3,75.03052701815521,
0,0,0,0,,,#F989A2,1152.857747077942,207.66245913505554,None,None,None,1185.491100627568,text_07,179,1,1,1,Reading_Baseline_main_no_click,None,riesiges,,,,,OA01,001,no,1500,2000,195,250,500,2024-08-22_11h39.36.650,EXNAT_3_fMRI_Psychopy2023.1.3,2023.1.3,75.03052701815521,
0,0,0,0,,,#D292F3,1154.0568499565125,208.8615620136261,None,None,None,1185.491100627568,text_07,180,1,1,1,Reading_Baseline_main_no_click,None,Geflecht,,,,,OA01,001,no,1500,2000,195,250,500,2024-08-22_11h39.36.650,EXNAT_3_fMRI_Psychopy2023.1.3,2023.1.3,75.03052701815521,
0,0,0,0,,,#2AB7EF,1155.2559878826141,210.06069993972778,None,None,None,994.2293962902814,text_07,181,1,1,1,Reading_Baseline_main_no_click,None,aus,,,,,OA01,001,no,1500,2000,195,250,500,2024-08-22_11h39.36.650,EXNAT_3_fMRI_Psychopy2023.1.3,2023.1.3,75.03052701815521,
0,0,0,0,,,#D292F3,1156.256567955017,211.06128001213074,None,None,None,1159.452479065786,text_07,182,1,1,1,Reading_Baseline_main_no_click,None,"Äckern,",,,,,OA01,001,no,1500,2000,195,250,500,2024-08-22_11h39.36.650,EXNAT_3_fMRI_Psychopy2023.1.3,2023.1.3,75.03052701815521,
0,0,0,0,,,#88BA3F,1157.4296479225159,212.23435997962952,None,None,None,1159.452479065786,text_07,183,1,1,1,Reading_Baseline_main_no_click,None,Häusern,,,,,OA01,001,no,1500,2000,195,250,500,2024-08-22_11h39.36.650,EXNAT_3_fMRI_Psychopy2023.1.3,2023.1.3,75.03052701815521,
0,0,0,0,,,#D292F3,1158.6016249656677,213.40633702278137,None,None,None,994.2293962902814,text_07,184,1,1,1,Reading_Baseline_main_no_click,None,und,,,,,OA01,001,no,1500,2000,195,250,500,2024-08-22_11h39.36.650,EXNAT_3_fMRI_Psychopy2023.1.3,2023.1.3,75.03052701815521,
0,0,0,0,,,#2AB7EF,1159.6013190746307,214.40603113174438,None,None,None,1093.8403929246497,text_07,185,1,1,1,Reading_Baseline_main_no_click,None,"Seen,",,,,,OA01,001,no,1500,2000,195,250,500,2024-08-22_11h39.36.650,EXNAT_3_fMRI_Psychopy2023.1.3,2023.1.3,75.03052701815521,
0,0,0,0,,,#2AB7EF,1160.7073390483856,215.51205110549927,None,None,None,994.2293962902814,text_07,186,1,1,1,Reading_Baseline_main_no_click,None,das,,,,,OA01,001,no,1500,2000,195,250,500,2024-08-22_11h39.36.650,EXNAT_3_fMRI_Psychopy2023.1.3,2023.1.3,75.03052701815521,
0,0,0,0,,,#F989A2,1161.70725107193,216.51196312904358,None,None,None,1050.3274004183786,text_07,187,1,1,1,Reading_Baseline_main_no_click,None,sich,,,,,OA01,001,no,1500,2000,195,250,500,2024-08-22_11h39.36.650,EXNAT_3_fMRI_Psychopy2023.1.3,2023.1.3,75.03052701815521,
0,0,0,0,,,#F989A2,1162.760293006897,217.56500506401062,None,None,None,1050.3274004183786,text_07,188,1,1,1,Reading_Baseline_main_no_click,None,über,,,,,OA01,001,no,1500,2000,195,250,500,2024-08-22_11h39.36.650,EXNAT_3_fMRI_Psychopy2023.1.3,2023.1.3,75.03052701815521,
0,0,0,0,,,#F989A2,1163.8135149478912,218.61822700500488,None,None,None,1229.004093133839,text_07,189,1,1,1,Reading_Baseline_main_no_click,None,mindestens,,,,,OA01,001,no,1500,2000,195,250,500,2024-08-22_11h39.36.650,EXNAT_3_fMRI_Psychopy2023.1.3,2023.1.3,75.03052701815521,
0,0,0,0,,,#D292F3,1165.052717924118,219.8574299812317,None,None,None,1159.452479065786,text_07,190,1,1,1,Reading_Baseline_main_no_click,None,tausend,,,,,OA01,001,no,1500,2000,195,250,500,2024-08-22_11h39.36.650,EXNAT_3_fMRI_Psychopy2023.1.3,2023.1.3,75.03052701815521,
0,0,0,0,,,#88BA3F,1166.2266149520874,221.03132700920105,None,None,None,1320.6548008367572,text_07,191,1,1,1,Reading_Baseline_main_no_click,None,Quadratkilometer,,,,,OA01,001,no,1500,2000,195,250,500,2024-08-22_11h39.36.650,EXNAT_3_fMRI_Psychopy2023.1.3,2023.1.3,75.03052701815521,
0,0,0,0,,,#2AB7EF,1167.558814048767,222.36352610588074,None,None,None,1247.5895781956824,text_07,192,1,1,1,Reading_Baseline_main_no_click,None,erstreckte.,,,,,OA01,001,no,1500,2000,195,250,500,2024-08-22_11h39.36.650,EXNAT_3_fMRI_Psychopy2023.1.3,2023.1.3,75.03052701815521,
0,0,0,0,,,#D292F3,1168.811250925064,223.61596298217773,None,None,None,994.2293962902814,text_07,193,1,1,1,Reading_Baseline_main_no_click,None,Auf,,,,,OA01,001,no,1500,2000,195,250,500,2024-08-22_11h39.36.650,EXNAT_3_fMRI_Psychopy2023.1.3,2023.1.3,75.03052701815521,
0,0,0,0,,,#88BA3F,1169.8111908435822,224.6159029006958,None,None,None,1129.3930964994706,text_07,194,1,1,1,Reading_Baseline_main_no_click,None,dieser,,,,,OA01,001,no,1500,2000,195,250,500,2024-08-22_11h39.36.650,EXNAT_3_fMRI_Psychopy2023.1.3,2023.1.3,75.03052701815521,
0,0,0,0,,,#D292F3,1170.944354057312,225.74906611442566,None,None,None,1129.3930964994706,text_07,195,1,1,1,Reading_Baseline_main_no_click,None,Fläche,,,,,OA01,001,no,1500,2000,195,250,500,2024-08-22_11h39.36.650,EXNAT_3_fMRI_Psychopy2023.1.3,2023.1.3,75.03052701815521,
0,0,0,0,,,#F989A2,1172.076900959015,226.88161301612854,None,None,None,1050.3274004183786,text_07,196,1,1,1,Reading_Baseline_main_no_click,None,gibt,,,,,OA01,001,no,1500,2000,195,250,500,2024-08-22_11h39.36.650,EXNAT_3_fMRI_Psychopy2023.1.3,2023.1.3,75.03052701815521,
0,0,0,0,,,#F989A2,1173.1297919750214,227.934504032135,None,None,None,975.0,text_07,197,1,1,1,Reading_Baseline_main_no_click,None,es,,,,,OA01,001,no,1500,2000,195,250,500,2024-08-22_11h39.36.650,EXNAT_3_fMRI_Psychopy2023.1.3,2023.1.3,75.03052701815521,
0,0,0,0,,,#88BA3F,1174.116026878357,228.92073893547058,None,None,None,1050.3274004183786,text_07,198,1,1,1,Reading_Baseline_main_no_click,None,kaum,,,,,OA01,001,no,1500,2000,195,250,500,2024-08-22_11h39.36.650,EXNAT_3_fMRI_Psychopy2023.1.3,2023.1.3,75.03052701815521,
0,0,0,0,,,#2AB7EF,1175.169128894806,229.97384095191956,None,None,None,1093.8403929246497,text_07,199,1,1,1,Reading_Baseline_main_no_click,None,einen,,,,,OA01,001,no,1500,2000,195,250,500,2024-08-22_11h39.36.650,EXNAT_3_fMRI_Psychopy2023.1.3,2023.1.3,75.03052701815521,
0,0,0,0,,,#F989A2,1176.2760338783264,231.08074593544006,None,None,None,1129.3930964994706,text_07,200,1,1,1,Reading_Baseline_main_no_click,None,"Fleck,",,,,,OA01,001,no,1500,2000,195,250,500,2024-08-22_11h39.36.650,EXNAT_3_fMRI_Psychopy2023.1.3,2023.1.3,75.03052701815521,
0,0,0,0,,,#D292F3,1177.4083909988403,232.21310305595398,None,None,None,994.2293962902814,text_07,201,1,1,1,Reading_Baseline_main_no_click,None,der,,,,,OA01,001,no,1500,2000,195,250,500,2024-08-22_11h39.36.650,EXNAT_3_fMRI_Psychopy2023.1.3,2023.1.3,75.03052701815521,
0,0,0,0,,,#F989A2,1178.4082510471344,233.21296310424805,None,None,None,1093.8403929246497,text_07,202,1,1,1,Reading_Baseline_main_no_click,None,nicht,,,,,OA01,001,no,1500,2000,195,250,500,2024-08-22_11h39.36.650,EXNAT_3_fMRI_Psychopy2023.1.3,2023.1.3,75.03052701815521,
0,0,0,0,,,#2AB7EF,1179.514809846878,234.3195219039917,None,None,None,1159.452479065786,text_07,203,1,1,1,Reading_Baseline_main_no_click,None,genutzt,,,,,OA01,001,no,1500,2000,195,250,500,2024-08-22_11h39.36.650,EXNAT_3_fMRI_Psychopy2023.1.3,2023.1.3,75.03052701815521,
0,0,0,0,,,#88BA3F,1180.6874129772186,235.49212503433228,None,None,None,1129.3930964994706,text_07,204,1,1,1,Reading_Baseline_main_no_click,None,worden,,,,,OA01,001,no,1500,2000,195,250,500,2024-08-22_11h39.36.650,EXNAT_3_fMRI_Psychopy2023.1.3,2023.1.3,75.03052701815521,
0,0,0,0,,,#2AB7EF,1181.8202090263367,236.62492108345032,None,None,None,1050.3274004183786,text_07,205,1,1,1,Reading_Baseline_main_no_click,None,ist.,,,,,OA01,001,no,1500,2000,195,250,500,2024-08-22_11h39.36.650,EXNAT_3_fMRI_Psychopy2023.1.3,2023.1.3,75.03052701815521,
0,0,0,0,,,#D292F3,1182.873121023178,237.67783308029175,None,None,None,994.2293962902814,text_07,206,1,1,1,Reading_Baseline_main_no_click,None,Das,,,,,OA01,001,no,1500,2000,195,250,500,2024-08-22_11h39.36.650,EXNAT_3_fMRI_Psychopy2023.1.3,2023.1.3,75.03052701815521,
0,0,0,0,,,#F989A2,1183.8734679222107,238.67817997932434,None,None,None,1320.6548008367572,text_07,207,1,1,1,Reading_Baseline_main_no_click,None,Bewässerungsnetz,,,,,OA01,001,no,1500,2000,195,250,500,2024-08-22_11h39.36.650,EXNAT_3_fMRI_Psychopy2023.1.3,2023.1.3,75.03052701815521,
0,0,0,0,,,#D292F3,1185.2056879997253,240.010400056839,None,None,None,994.2293962902814,text_07,208,1,1,1,Reading_Baseline_main_no_click,None,war,,,,,OA01,001,no,1500,2000,195,250,500,2024-08-22_11h39.36.650,EXNAT_3_fMRI_Psychopy2023.1.3,2023.1.3,75.03052701815521,
0,0,0,0,,,#2AB7EF,1186.2054650783539,241.01017713546753,None,None,None,1093.8403929246497,text_07,209,1,1,1,Reading_Baseline_main_no_click,None,sogar,,,,,OA01,001,no,1500,2000,195,250,500,2024-08-22_11h39.36.650,EXNAT_3_fMRI_Psychopy2023.1.3,2023.1.3,75.03052701815521,
0,0,0,0,,,#F989A2,1187.3118679523468,242.11658000946045,None,None,None,1050.3274004183786,text_07,210,1,1,1,Reading_Baseline_main_no_click,None,dazu,,,,,OA01,001,no,1500,2000,195,250,500,2024-08-22_11h39.36.650,EXNAT_3_fMRI_Psychopy2023.1.3,2023.1.3,75.03052701815521,
0,0,0,0,,,#D292F3,1188.3646428585052,243.1693549156189,None,None,None,1208.4587925805629,text_07,211,1,1,1,Reading_Baseline_main_no_click,None,"geeignet,",,,,,OA01,001,no,1500,2000,195,250,500,2024-08-22_11h39.36.650,EXNAT_3_fMRI_Psychopy2023.1.3,2023.1.3,75.03052701815521,
0,0,0,0,,,#F989A2,1189.5772519111633,244.38196396827698,None,None,None,994.2293962902814,text_07,212,1,1,1,Reading_Baseline_main_no_click,None,den,,,,,OA01,001,no,1500,2000,195,250,500,2024-08-22_11h39.36.650,EXNAT_3_fMRI_Psychopy2023.1.3,2023.1.3,75.03052701815521,
0,0,0,0,,,#88BA3F,1190.5771460533142,245.38185811042786,None,None,None,1208.4587925805629,text_07,213,1,1,1,Reading_Baseline_main_no_click,None,Reisanbau,,,,,OA01,001,no,1500,2000,195,250,500,2024-08-22_11h39.36.650,EXNAT_3_fMRI_Psychopy2023.1.3,2023.1.3,75.03052701815521,
0,0,0,0,,,#F989A2,1191.789988040924,246.59470009803772,None,None,None,975.0,text_07,214,1,1,1,Reading_Baseline_main_no_click,None,zu,,,,,OA01,001,no,1500,2000,195,250,500,2024-08-22_11h39.36.650,EXNAT_3_fMRI_Psychopy2023.1.3,2023.1.3,75.03052701815521,
0,0,0,0,,,#88BA3F,1192.7767000198364,247.58141207695007,None,None,None,1185.491100627568,text_07,215,1,1,1,Reading_Baseline_main_no_click,None,stärken.,,,,,OA01,001,no,1500,2000,195,250,500,2024-08-22_11h39.36.650,EXNAT_3_fMRI_Psychopy2023.1.3,2023.1.3,75.03052701815521,
0,0,0,0,,,#2AB7EF,1193.9761459827423,248.78085803985596,None,None,None,994.2293962902814,text_07,216,1,1,1,Reading_Baseline_main_no_click,None,Für,,,,,OA01,001,no,1500,2000,195,250,500,2024-08-22_11h39.36.650,EXNAT_3_fMRI_Psychopy2023.1.3,2023.1.3,75.03052701815521,
0,0,0,0,,,#F989A2,1194.9755370616913,249.78024911880493,None,None,None,994.2293962902814,text_07,217,1,1,1,Reading_Baseline_main_no_click,None,den,,,,,OA01,001,no,1500,2000,195,250,500,2024-08-22_11h39.36.650,EXNAT_3_fMRI_Psychopy2023.1.3,2023.1.3,75.03052701815521,
0,0,0,0,,,#88BA3F,1195.9735119342804,250.77822399139404,None,None,None,1093.8403929246497,text_07,218,1,1,1,Reading_Baseline_main_no_click,None,Anbau,,,,,OA01,001,no,1500,2000,195,250,500,2024-08-22_11h39.36.650,EXNAT_3_fMRI_Psychopy2023.1.3,2023.1.3,75.03052701815521,
0,0,0,0,,,#F989A2,1197.079663991928,251.88437604904175,None,None,None,994.2293962902814,text_07,219,1,1,1,Reading_Baseline_main_no_click,None,von,,,,,OA01,001,no,1500,2000,195,250,500,2024-08-22_11h39.36.650,EXNAT_3_fMRI_Psychopy2023.1.3,2023.1.3,75.03052701815521,
0,0,0,0,,,#D292F3,1198.0795278549194,252.88423991203308,None,None,None,1050.3274004183786,text_07,220,1,1,1,Reading_Baseline_main_no_click,None,Reis,,,,,OA01,001,no,1500,2000,195,250,500,2024-08-22_11h39.36.650,EXNAT_3_fMRI_Psychopy2023.1.3,2023.1.3,75.03052701815521,
0,0,0,0,,,#2AB7EF,1199.132672071457,253.93738412857056,None,None,None,1159.452479065786,text_07,221,1,1,1,Reading_Baseline_main_no_click,None,braucht,,,,,OA01,001,no,1500,2000,195,250,500,2024-08-22_11h39.36.650,EXNAT_3_fMRI_Psychopy2023.1.3,2023.1.3,75.03052701815521,
0,0,0,0,,,#88BA3F,1200.3052899837494,255.11000204086304,None,None,None,994.2293962902814,text_07,222,1,1,1,Reading_Baseline_main_no_click,None,man,,,,,OA01,001,no,1500,2000,195,250,500,2024-08-22_11h39.36.650,EXNAT_3_fMRI_Psychopy2023.1.3,2023.1.3,75.03052701815521,
0,0,0,0,,,#F989A2,1201.3067290782928,256.1114411354065,None,None,None,1129.3930964994706,text_07,223,1,1,1,Reading_Baseline_main_no_click,None,jedoch,,,,,OA01,001,no,1500,2000,195,250,500,2024-08-22_11h39.36.650,EXNAT_3_fMRI_Psychopy2023.1.3,2023.1.3,75.03052701815521,
0,0,0,0,,,#D292F3,1202.4402658939362,257.2449779510498,None,None,None,1129.3930964994706,text_07,224,1,1,1,Reading_Baseline_main_no_click,None,extrem,,,,,OA01,001,no,1500,2000,195,250,500,2024-08-22_11h39.36.650,EXNAT_3_fMRI_Psychopy2023.1.3,2023.1.3,75.03052701815521,
0,0,0,0,,,#88BA3F,1203.5722579956055,258.3769700527191,None,None,None,1050.3274004183786,text_07,225,1,1,1,Reading_Baseline_main_no_click,None,viel,,,,,OA01,001,no,1500,2000,195,250,500,2024-08-22_11h39.36.650,EXNAT_3_fMRI_Psychopy2023.1.3,2023.1.3,75.03052701815521,
0,0,0,0,,,#2AB7EF,1204.6253409385681,259.43005299568176,None,None,None,1129.3930964994706,text_07,226,1,1,1,Reading_Baseline_main_no_click,None,Wasser,,,,,OA01,001,no,1500,2000,195,250,500,2024-08-22_11h39.36.650,EXNAT_3_fMRI_Psychopy2023.1.3,2023.1.3,75.03052701815521,
0,0,0,0,,,#88BA3F,1205.7581059932709,260.5628180503845,None,None,None,994.2293962902814,text_07,227,1,1,1,Reading_Baseline_main_no_click,None,und,,,,,OA01,001,no,1500,2000,195,250,500,2024-08-22_11h39.36.650,EXNAT_3_fMRI_Psychopy2023.1.3,2023.1.3,75.03052701815521,
0,0,0,0,,,#D292F3,1206.757938861847,261.56265091896057,None,None,None,1159.452479065786,text_07,228,1,1,1,Reading_Baseline_main_no_click,None,riesige,,,,,OA01,001,no,1500,2000,195,250,500,2024-08-22_11h39.36.650,EXNAT_3_fMRI_Psychopy2023.1.3,2023.1.3,75.03052701815521,
0,0,0,0,,,#D292F3,1207.9296610355377,262.73437309265137,None,None,None,1185.491100627568,text_07,229,1,1,1,Reading_Baseline_main_no_click,None,Flächen.,,,,,OA01,001,no,1500,2000,195,250,500,2024-08-22_11h39.36.650,EXNAT_3_fMRI_Psychopy2023.1.3,2023.1.3,75.03052701815521,
0,0,0,0,,,#F989A2,1209.1292209625244,263.93393301963806,None,None,None,975.0,text_07,230,1,1,1,Reading_Baseline_main_no_click,None,Um,,,,,OA01,001,no,1500,2000,195,250,500,2024-08-22_11h39.36.650,EXNAT_3_fMRI_Psychopy2023.1.3,2023.1.3,75.03052701815521,
0,0,0,0,,,#D292F3,1210.1148920059204,264.91960406303406,None,None,None,994.2293962902814,text_07,231,1,1,1,Reading_Baseline_main_no_click,None,die,,,,,OA01,001,no,1500,2000,195,250,500,2024-08-22_11h39.36.650,EXNAT_3_fMRI_Psychopy2023.1.3,2023.1.3,75.03052701815521,
0,0,0,0,,,#2AB7EF,1211.1153230667114,265.9200351238251,None,None,None,1129.3930964994706,text_07,232,1,1,1,Reading_Baseline_main_no_click,None,Felder,,,,,OA01,001,no,1500,2000,195,250,500,2024-08-22_11h39.36.650,EXNAT_3_fMRI_Psychopy2023.1.3,2023.1.3,75.03052701815521,
0,0,0,0,,,#F989A2,1212.2476589679718,267.05237102508545,None,None,None,994.2293962902814,text_07,233,1,1,1,Reading_Baseline_main_no_click,None,und,,,,,OA01,001,no,1500,2000,195,250,500,2024-08-22_11h39.36.650,EXNAT_3_fMRI_Psychopy2023.1.3,2023.1.3,75.03052701815521,
0,0,0,0,,,#2AB7EF,1213.2470889091492,268.0518009662628,None,None,None,994.2293962902814,text_07,234,1,1,1,Reading_Baseline_main_no_click,None,die,,,,,OA01,001,no,1500,2000,195,250,500,2024-08-22_11h39.36.650,EXNAT_3_fMRI_Psychopy2023.1.3,2023.1.3,75.03052701815521,
0,0,0,0,,,#2AB7EF,1214.2469918727875,269.0517039299011,None,None,None,1247.5895781956824,text_07,235,1,1,1,Reading_Baseline_main_no_click,None,künstlichen,,,,,OA01,001,no,1500,2000,195,250,500,2024-08-22_11h39.36.650,EXNAT_3_fMRI_Psychopy2023.1.3,2023.1.3,75.03052701815521,
0,0,0,0,,,#F989A2,1215.5000898838043,270.30480194091797,None,None,None,1093.8403929246497,text_07,236,1,1,1,Reading_Baseline_main_no_click,None,"Seen,",,,,,OA01,001,no,1500,2000,195,250,500,2024-08-22_11h39.36.650,EXNAT_3_fMRI_Psychopy2023.1.3,2023.1.3,75.03052701815521,
0,0,0,0,,,#88BA3F,1216.606603860855,271.41131591796875,None,None,None,1129.3930964994706,text_07,237,1,1,1,Reading_Baseline_main_no_click,None,Flüsse,,,,,OA01,001,no,1500,2000,195,250,500,2024-08-22_11h39.36.650,EXNAT_3_fMRI_Psychopy2023.1.3,2023.1.3,75.03052701815521,
0,0,0,0,,,#F989A2,1217.7390940189362,272.5438060760498,None,None,None,994.2293962902814,text_07,238,1,1,1,Reading_Baseline_main_no_click,None,und,,,,,OA01,001,no,1500,2000,195,250,500,2024-08-22_11h39.36.650,EXNAT_3_fMRI_Psychopy2023.1.3,2023.1.3,75.03052701815521,
0,0,0,0,,,#D292F3,1218.73921084404,273.54392290115356,None,None,None,1129.3930964994706,text_07,239,1,1,1,Reading_Baseline_main_no_click,None,Kanäle,,,,,OA01,001,no,1500,2000,195,250,500,2024-08-22_11h39.36.650,EXNAT_3_fMRI_Psychopy2023.1.3,2023.1.3,75.03052701815521,
0,0,0,0,,,#88BA3F,1219.8722879886627,274.67700004577637,None,None,None,1229.004093133839,text_07,240,1,1,1,Reading_Baseline_main_no_click,None,"anzulegen,",,,,,OA01,001,no,1500,2000,195,250,500,2024-08-22_11h39.36.650,EXNAT_3_fMRI_Psychopy2023.1.3,2023.1.3,75.03052701815521,
0,0,0,0,,,#2AB7EF,1221.11199092865,275.91670298576355,None,None,None,1159.452479065786,text_07,241,1,1,1,Reading_Baseline_main_no_click,None,mussten,,,,,OA01,001,no,1500,2000,195,250,500,2024-08-22_11h39.36.650,EXNAT_3_fMRI_Psychopy2023.1.3,2023.1.3,75.03052701815521,
0,0,0,0,,,#2AB7EF,1222.2846050262451,277.08931708335876,None,None,None,1093.8403929246497,text_07,242,1,1,1,Reading_Baseline_main_no_click,None,große,,,,,OA01,001,no,1500,2000,195,250,500,2024-08-22_11h39.36.650,EXNAT_3_fMRI_Psychopy2023.1.3,2023.1.3,75.03052701815521,
0,0,0,0,,,#88BA3F,1223.391124010086,278.1958360671997,None,None,None,1247.5895781956824,text_07,243,1,1,1,Reading_Baseline_main_no_click,None,Waldflächen,,,,,OA01,001,no,1500,2000,195,250,500,2024-08-22_11h39.36.650,EXNAT_3_fMRI_Psychopy2023.1.3,2023.1.3,75.03052701815521,
0,0,0,0,,,#F989A2,1224.6432809829712,279.44799304008484,None,None,None,1159.452479065786,text_07,244,1,1,1,Reading_Baseline_main_no_click,None,gerodet,,,,,OA01,001,no,1500,2000,195,250,500,2024-08-22_11h39.36.650,EXNAT_3_fMRI_Psychopy2023.1.3,2023.1.3,75.03052701815521,
0,0,0,0,,,#D292F3,1225.8161070346832,280.6208190917969,None,None,None,1159.452479065786,text_07,245,1,1,1,Reading_Baseline_main_no_click,None,werden.,,,,,OA01,001,no,1500,2000,195,250,500,2024-08-22_11h39.36.650,EXNAT_3_fMRI_Psychopy2023.1.3,2023.1.3,75.03052701815521,
0,0,0,0,,,#F989A2,1226.9891250133514,281.7938370704651,None,None,None,994.2293962902814,text_07,246,1,1,1,Reading_Baseline_main_no_click,None,Mit,,,,,OA01,001,no,1500,2000,195,250,500,2024-08-22_11h39.36.650,EXNAT_3_fMRI_Psychopy2023.1.3,2023.1.3,75.03052701815521,
0,0,0,0,,,#88BA3F,1227.9885399341583,282.793251991272,None,None,None,994.2293962902814,text_07,247,1,1,1,Reading_Baseline_main_no_click,None,der,,,,,OA01,001,no,1500,2000,195,250,500,2024-08-22_11h39.36.650,EXNAT_3_fMRI_Psychopy2023.1.3,2023.1.3,75.03052701815521,
0,0,0,0,,,#D292F3,1228.9890449047089,283.7937569618225,None,None,None,1050.3274004183786,text_07,248,1,1,1,Reading_Baseline_main_no_click,None,Zeit,,,,,OA01,001,no,1500,2000,195,250,500,2024-08-22_11h39.36.650,EXNAT_3_fMRI_Psychopy2023.1.3,2023.1.3,75.03052701815521,
0,0,0,0,,,#F989A2,1230.0546028614044,284.85931491851807,None,None,None,1129.3930964994706,text_07,249,1,1,1,Reading_Baseline_main_no_click,None,führte,,,,,OA01,001,no,1500,2000,195,250,500,2024-08-22_11h39.36.650,EXNAT_3_fMRI_Psychopy2023.1.3,2023.1.3,75.03052701815521,
0,0,0,0,,,#2AB7EF,1231.1873729228973,285.992084980011,None,None,None,994.2293962902814,text_07,250,1,1,1,Reading_Baseline_main_no_click,None,das,,,,,OA01,001,no,1500,2000,195,250,500,2024-08-22_11h39.36.650,EXNAT_3_fMRI_Psychopy2023.1.3,2023.1.3,75.03052701815521,
0,0,0,0,,,#F989A2,1232.1873359680176,286.9920480251312,None,None,None,1294.6161792749754,text_07,251,1,1,1,Reading_Baseline_main_no_click,None,wahrscheinlich,,,,,OA01,001,no,1500,2000,195,250,500,2024-08-22_11h39.36.650,EXNAT_3_fMRI_Psychopy2023.1.3,2023.1.3,75.03052701815521,
0,0,0,0,,,#88BA3F,1233.4934618473053,288.29817390441895,None,None,None,975.0,text_07,252,1,1,1,Reading_Baseline_main_no_click,None,zu,,,,,OA01,001,no,1500,2000,195,250,500,2024-08-22_11h39.36.650,EXNAT_3_fMRI_Psychopy2023.1.3,2023.1.3,75.03052701815521,
0,0,0,0,,,#88BA3F,1234.4798049926758,289.28451704978943,None,None,None,1185.491100627568,text_07,253,1,1,1,Reading_Baseline_main_no_click,None,riesigen,,,,,OA01,001,no,1500,2000,195,250,500,2024-08-22_11h39.36.650,EXNAT_3_fMRI_Psychopy2023.1.3,2023.1.3,75.03052701815521,
0,0,0,0,,,#2AB7EF,1235.6799218654633,290.4846339225769,None,None,None,1208.4587925805629,text_07,254,1,1,1,Reading_Baseline_main_no_click,None,Problemen,,,,,OA01,001,no,1500,2000,195,250,500,2024-08-22_11h39.36.650,EXNAT_3_fMRI_Psychopy2023.1.3,2023.1.3,75.03052701815521,
0,0,0,0,,,#D292F3,1236.8921070098877,291.69681906700134,None,None,None,994.2293962902814,text_07,255,1,1,1,Reading_Baseline_main_no_click,None,wie,,,,,OA01,001,no,1500,2000,195,250,500,2024-08-22_11h39.36.650,EXNAT_3_fMRI_Psychopy2023.1.3,2023.1.3,75.03052701815521,
0,0,0,0,,,#F989A2,1237.8925108909607,292.69722294807434,None,None,None,1264.55679670866,text_07,256,1,1,1,Reading_Baseline_main_no_click,None,Erdrutschen.,,,,,OA01,001,no,1500,2000,195,250,500,2024-08-22_11h39.36.650,EXNAT_3_fMRI_Psychopy2023.1.3,2023.1.3,75.03052701815521,
0,0,0,0,,,#D292F3,1239.1713390350342,293.9760510921478,None,None,None,994.2293962902814,text_07,257,1,1,1,Reading_Baseline_main_no_click,None,Das,,,,,OA01,001,no,1500,2000,195,250,500,2024-08-22_11h39.36.650,EXNAT_3_fMRI_Psychopy2023.1.3,2023.1.3,75.03052701815521,
0,0,0,0,,,#88BA3F,1240.1710810661316,294.97579312324524,None,None,None,1159.452479065786,text_07,258,1,1,1,Reading_Baseline_main_no_click,None,gesamte,,,,,OA01,001,no,1500,2000,195,250,500,2024-08-22_11h39.36.650,EXNAT_3_fMRI_Psychopy2023.1.3,2023.1.3,75.03052701815521,
0,0,0,0,,,#2AB7EF,1241.344249010086,296.1489610671997,None,None,None,1129.3930964994706,text_07,259,1,1,1,Reading_Baseline_main_no_click,None,System,,,,,OA01,001,no,1500,2000,195,250,500,2024-08-22_11h39.36.650,EXNAT_3_fMRI_Psychopy2023.1.3,2023.1.3,75.03052701815521,
0,0,0,0,,,#F989A2,1242.4770588874817,297.28177094459534,None,None,None,1129.3930964994706,text_07,260,1,1,1,Reading_Baseline_main_no_click,None,dürfte,,,,,OA01,001,no,1500,2000,195,250,500,2024-08-22_11h39.36.650,EXNAT_3_fMRI_Psychopy2023.1.3,2023.1.3,75.03052701815521,
0,0,0,0,,,#D292F3,1243.6098499298096,298.4145619869232,None,None,None,1093.8403929246497,text_07,261,1,1,1,Reading_Baseline_main_no_click,None,daher,,,,,OA01,001,no,1500,2000,195,250,500,2024-08-22_11h39.36.650,EXNAT_3_fMRI_Psychopy2023.1.3,2023.1.3,75.03052701815521,
0,0,0,0,,,#88BA3F,1244.7161438465118,299.5208559036255,None,None,None,1050.3274004183786,text_07,262,1,1,1,Reading_Baseline_main_no_click,None,auch,,,,,OA01,001,no,1500,2000,195,250,500,2024-08-22_11h39.36.650,EXNAT_3_fMRI_Psychopy2023.1.3,2023.1.3,75.03052701815521,
0,0,0,0,,,#D292F3,1245.769285917282,300.57399797439575,None,None,None,1050.3274004183786,text_07,263,1,1,1,Reading_Baseline_main_no_click,None,sehr,,,,,OA01,001,no,1500,2000,195,250,500,2024-08-22_11h39.36.650,EXNAT_3_fMRI_Psychopy2023.1.3,2023.1.3,75.03052701815521,
0,0,0,0,,,#88BA3F,1246.822821855545,301.6275339126587,None,None,None,1247.5895781956824,text_07,264,1,1,1,Reading_Baseline_main_no_click,None,empfindlich,,,,,OA01,001,no,1500,2000,195,250,500,2024-08-22_11h39.36.650,EXNAT_3_fMRI_Psychopy2023.1.3,2023.1.3,75.03052701815521,
0,0,0,0,,,#F989A2,1248.0754408836365,302.8801529407501,None,None,None,994.2293962902814,text_07,265,1,1,1,Reading_Baseline_main_no_click,None,auf,,,,,OA01,001,no,1500,2000,195,250,500,2024-08-22_11h39.36.650,EXNAT_3_fMRI_Psychopy2023.1.3,2023.1.3,75.03052701815521,
0,0,0,0,,,#88BA3F,1249.075278043747,303.8799901008606,None,None,None,1332.4766020909622,text_07,266,1,1,1,Reading_Baseline_main_no_click,None,Naturkatastrophen,,,,,OA01,001,no,1500,2000,195,250,500,2024-08-22_11h39.36.650,EXNAT_3_fMRI_Psychopy2023.1.3,2023.1.3,75.03052701815521,
0,0,0,0,,,#2AB7EF,1250.4208340644836,305.2255461215973,None,None,None,1185.491100627568,text_07,267,1,1,1,Reading_Baseline_main_no_click,None,reagiert,,,,,OA01,001,no,1500,2000,195,250,500,2024-08-22_11h39.36.650,EXNAT_3_fMRI_Psychopy2023.1.3,2023.1.3,75.03052701815521,
0,0,0,0,,,#F989A2,1251.6203918457031,306.4251039028168,None,None,None,1129.3930964994706,text_07,268,1,1,1,Reading_Baseline_main_no_click,None,haben.,,,,,OA01,001,no,1500,2000,195,250,500,2024-08-22_11h39.36.650,EXNAT_3_fMRI_Psychopy2023.1.3,2023.1.3,75.03052701815521,
0,0,0,0,,,#88BA3F,1252.7538208961487,307.55853295326233,None,None,None,1264.55679670866,text_07,269,1,1,1,Reading_Baseline_main_no_click,None,Insbesondere,,,,,OA01,001,no,1500,2000,195,250,500,2024-08-22_11h39.36.650,EXNAT_3_fMRI_Psychopy2023.1.3,2023.1.3,75.03052701815521,
0,0,0,0,,,#D292F3,1254.0326759815216,308.83738803863525,None,None,None,975.0,text_07,270,1,1,1,Reading_Baseline_main_no_click,None,im,,,,,OA01,001,no,1500,2000,195,250,500,2024-08-22_11h39.36.650,EXNAT_3_fMRI_Psychopy2023.1.3,2023.1.3,75.03052701815521,
0,0,0,0,,,#2AB7EF,1255.01952791214,309.82423996925354,None,None,None,1129.3930964994706,text_07,271,1,1,1,Reading_Baseline_main_no_click,None,Norden,,,,,OA01,001,no,1500,2000,195,250,500,2024-08-22_11h39.36.650,EXNAT_3_fMRI_Psychopy2023.1.3,2023.1.3,75.03052701815521,
0,0,0,0,,,#D292F3,1256.1521799564362,310.9568920135498,None,None,None,994.2293962902814,text_07,272,1,1,1,Reading_Baseline_main_no_click,None,der,,,,,OA01,001,no,1500,2000,195,250,500,2024-08-22_11h39.36.650,EXNAT_3_fMRI_Psychopy2023.1.3,2023.1.3,75.03052701815521,
0,0,0,0,,,#2AB7EF,1257.1517388820648,311.95645093917847,None,None,None,1093.8403929246497,text_07,273,1,1,1,Reading_Baseline_main_no_click,None,Stadt,,,,,OA01,001,no,1500,2000,195,250,500,2024-08-22_11h39.36.650,EXNAT_3_fMRI_Psychopy2023.1.3,2023.1.3,75.03052701815521,
0,0,0,0,,,#F989A2,1258.2578389644623,313.0625510215759,None,None,None,1050.3274004183786,text_07,274,1,1,1,Reading_Baseline_main_no_click,None,fand,,,,,OA01,001,no,1500,2000,195,250,500,2024-08-22_11h39.36.650,EXNAT_3_fMRI_Psychopy2023.1.3,2023.1.3,75.03052701815521,
0,0,0,0,,,#2AB7EF,1259.3110010623932,314.11571311950684,None,None,None,994.2293962902814,text_07,275,1,1,1,Reading_Baseline_main_no_click,None,man,,,,,OA01,001,no,1500,2000,195,250,500,2024-08-22_11h39.36.650,EXNAT_3_fMRI_Psychopy2023.1.3,2023.1.3,75.03052701815521,
0,0,0,0,,,#D292F3,1260.3108370304108,315.1155490875244,None,None,None,1129.3930964994706,text_07,276,1,1,1,Reading_Baseline_main_no_click,None,Spuren,,,,,OA01,001,no,1500,2000,195,250,500,2024-08-22_11h39.36.650,EXNAT_3_fMRI_Psychopy2023.1.3,2023.1.3,75.03052701815521,
0,0,0,0,,,#2AB7EF,1261.4435908794403,316.24830293655396,None,None,None,994.2293962902814,text_07,277,1,1,1,Reading_Baseline_main_no_click,None,von,,,,,OA01,001,no,1500,2000,195,250,500,2024-08-22_11h39.36.650,EXNAT_3_fMRI_Psychopy2023.1.3,2023.1.3,75.03052701815521,
0,0,0,0,,,#F989A2,1262.4434850215912,317.24819707870483,None,None,None,1229.004093133839,text_07,278,1,1,1,Reading_Baseline_main_no_click,None,hektischen,,,,,OA01,001,no,1500,2000,195,250,500,2024-08-22_11h39.36.650,EXNAT_3_fMRI_Psychopy2023.1.3,2023.1.3,75.03052701815521,
0,0,0,0,,,#2AB7EF,1263.6830399036407,318.4877519607544,None,None,None,1247.5895781956824,text_07,279,1,1,1,Reading_Baseline_main_no_click,None,Anpassungen,,,,,OA01,001,no,1500,2000,195,250,500,2024-08-22_11h39.36.650,EXNAT_3_fMRI_Psychopy2023.1.3,2023.1.3,75.03052701815521,
0,0,0,0,,,#88BA3F,1264.935749053955,319.7404611110687,None,None,None,994.2293962902814,text_07,280,1,1,1,Reading_Baseline_main_no_click,None,und,,,,,OA01,001,no,1500,2000,195,250,500,2024-08-22_11h39.36.650,EXNAT_3_fMRI_Psychopy2023.1.3,2023.1.3,75.03052701815521,
0,0,0,0,,,#F989A2,1265.9360220432281,320.7407341003418,None,None,None,1280.1651247049997,text_07,281,1,1,1,Reading_Baseline_main_no_click,None,Deichbrüchen.,,,,,OA01,001,no,1500,2000,195,250,500,2024-08-22_11h39.36.650,EXNAT_3_fMRI_Psychopy2023.1.3,2023.1.3,75.03052701815521,
0,0,0,0,,,#2AB7EF,1267.2288298606873,322.0335419178009,None,None,None,1208.4587925805629,text_07,282,1,1,1,Reading_Baseline_main_no_click,None,Genaueres,,,,,OA01,001,no,1500,2000,195,250,500,2024-08-22_11h39.36.650,EXNAT_3_fMRI_Psychopy2023.1.3,2023.1.3,75.03052701815521,
0,0,0,0,,,#F989A2,1268.441477060318,323.24618911743164,None,None,None,1050.3274004183786,text_07,283,1,1,1,Reading_Baseline_main_no_click,None,weiß,,,,,OA01,001,no,1500,2000,195,250,500,2024-08-22_11h39.36.650,EXNAT_3_fMRI_Psychopy2023.1.3,2023.1.3,75.03052701815521,
0,0,0,0,,,#88BA3F,1269.4942319393158,324.29894399642944,None,None,None,994.2293962902814,text_07,284,1,1,1,Reading_Baseline_main_no_click,None,man,,,,,OA01,001,no,1500,2000,195,250,500,2024-08-22_11h39.36.650,EXNAT_3_fMRI_Psychopy2023.1.3,2023.1.3,75.03052701815521,
0,0,0,0,,,#2AB7EF,1270.4938549995422,325.2985670566559,None,None,None,1050.3274004183786,text_07,285,1,1,1,Reading_Baseline_main_no_click,None,aber,,,,,OA01,001,no,1500,2000,195,250,500,2024-08-22_11h39.36.650,EXNAT_3_fMRI_Psychopy2023.1.3,2023.1.3,75.03052701815521,
0,0,0,0,,,#F989A2,1271.5469229221344,326.35163497924805,None,None,None,1129.3930964994706,text_07,286,1,1,1,Reading_Baseline_main_no_click,None,nicht.,,,,,OA01,001,no,1500,2000,195,250,500,2024-08-22_11h39.36.650,EXNAT_3_fMRI_Psychopy2023.1.3,2023.1.3,75.03052701815521,
0,0,0,0,,,#D292F3,1272.6797368526459,327.4844489097595,None,None,None,994.2293962902814,text_07,287,1,1,1,Reading_Baseline_main_no_click,None,Die,,,,,OA01,001,no,1500,2000,195,250,500,2024-08-22_11h39.36.650,EXNAT_3_fMRI_Psychopy2023.1.3,2023.1.3,75.03052701815521,
0,0,0,0,,,#88BA3F,1273.6794788837433,328.48419094085693,None,None,None,1050.3274004183786,text_07,288,1,1,1,Reading_Baseline_main_no_click,None,neue,,,,,OA01,001,no,1500,2000,195,250,500,2024-08-22_11h39.36.650,EXNAT_3_fMRI_Psychopy2023.1.3,2023.1.3,75.03052701815521,
0,0,0,0,,,#F989A2,1274.732477903366,329.53718996047974,None,None,None,1093.8403929246497,text_07,289,1,1,1,Reading_Baseline_main_no_click,None,Karte,,,,,OA01,001,no,1500,2000,195,250,500,2024-08-22_11h39.36.650,EXNAT_3_fMRI_Psychopy2023.1.3,2023.1.3,75.03052701815521,
0,0,0,0,,,#D292F3,1275.8384079933167,330.6431200504303,None,None,None,994.2293962902814,text_07,290,1,1,1,Reading_Baseline_main_no_click,None,der,,,,,OA01,001,no,1500,2000,195,250,500,2024-08-22_11h39.36.650,EXNAT_3_fMRI_Psychopy2023.1.3,2023.1.3,75.03052701815521,
0,0,0,0,,,#2AB7EF,1276.8381910324097,331.6429030895233,None,None,None,1093.8403929246497,text_07,291,1,1,1,Reading_Baseline_main_no_click,None,Stadt,,,,,OA01,001,no,1500,2000,195,250,500,2024-08-22_11h39.36.650,EXNAT_3_fMRI_Psychopy2023.1.3,2023.1.3,75.03052701815521,
0,0,0,0,,,#88BA3F,1277.9446918964386,332.74940395355225,None,None,None,1129.3930964994706,text_07,292,1,1,1,Reading_Baseline_main_no_click,None,verrät,,,,,OA01,001,no,1500,2000,195,250,500,2024-08-22_11h39.36.650,EXNAT_3_fMRI_Psychopy2023.1.3,2023.1.3,75.03052701815521,
0,0,0,0,,,#2AB7EF,1279.0772769451141,333.8819890022278,None,None,None,1050.3274004183786,text_07,293,1,1,1,Reading_Baseline_main_no_click,None,aber,,,,,OA01,001,no,1500,2000,195,250,500,2024-08-22_11h39.36.650,EXNAT_3_fMRI_Psychopy2023.1.3,2023.1.3,75.03052701815521,
0,0,0,0,,,#F989A2,1280.1306419372559,334.9353539943695,None,None,None,1229.004093133839,text_07,294,1,1,1,Reading_Baseline_main_no_click,None,"zumindest,",,,,,OA01,001,no,1500,2000,195,250,500,2024-08-22_11h39.36.650,EXNAT_3_fMRI_Psychopy2023.1.3,2023.1.3,75.03052701815521,
0,0,0,0,,,#2AB7EF,1281.3696880340576,336.17440009117126,None,None,None,975.0,text_07,295,1,1,1,Reading_Baseline_main_no_click,None,wo,,,,,OA01,001,no,1500,2000,195,250,500,2024-08-22_11h39.36.650,EXNAT_3_fMRI_Psychopy2023.1.3,2023.1.3,75.03052701815521,
0,0,0,0,,,#D292F3,1282.3561489582062,337.1608610153198,None,None,None,994.2293962902814,text_07,296,1,1,1,Reading_Baseline_main_no_click,None,man,,,,,OA01,001,no,1500,2000,195,250,500,2024-08-22_11h39.36.650,EXNAT_3_fMRI_Psychopy2023.1.3,2023.1.3,75.03052701815521,
0,0,0,0,,,#D292F3,1283.3562870025635,338.1609990596771,None,None,None,1050.3274004183786,text_07,297,1,1,1,Reading_Baseline_main_no_click,None,nach,,,,,OA01,001,no,1500,2000,195,250,500,2024-08-22_11h39.36.650,EXNAT_3_fMRI_Psychopy2023.1.3,2023.1.3,75.03052701815521,
0,0,0,0,,,#88BA3F,1284.4092490673065,339.21396112442017,None,None,None,1208.4587925805629,text_07,298,1,1,1,Reading_Baseline_main_no_click,None,Antworten,,,,,OA01,001,no,1500,2000,195,250,500,2024-08-22_11h39.36.650,EXNAT_3_fMRI_Psychopy2023.1.3,2023.1.3,75.03052701815521,
0,0,0,0,,,#D292F3,1285.622062921524,340.4267749786377,None,None,None,1129.3930964994706,text_07,299,1,1,1,Reading_Baseline_main_no_click,None,suchen,,,,,OA01,001,no,1500,2000,195,250,500,2024-08-22_11h39.36.650,EXNAT_3_fMRI_Psychopy2023.1.3,2023.1.3,75.03052701815521,
0,0,0,0,,,#88BA3F,1286.7549939155579,341.5597059726715,None,None,None,1159.452479065786,text_07,300,1,1,1,Reading_Baseline_main_no_click,None,sollte.,,,,,OA01,001,no,1500,2000,195,250,500,2024-08-22_11h39.36.650,EXNAT_3_fMRI_Psychopy2023.1.3,2023.1.3,75.03052701815521,
0,0,0,0,,,,1287.9707560539246,342.7754681110382,,,,,text_07,,1,1,1,Reading_Baseline_main_no_click,None,,Q1,1,a,True,OA01,001,no,1500,2000,195,250,500,2024-08-22_11h39.36.650,EXNAT_3_fMRI_Psychopy2023.1.3,2023.1.3,75.03052701815521,
0,0,0,0,,,,1292.1241290569305,346.9288411140442,,,,,text_07,,1,1,1,Reading_Baseline_main_no_click,None,,Q2,3,c,True,OA01,001,no,1500,2000,195,250,500,2024-08-22_11h39.36.650,EXNAT_3_fMRI_Psychopy2023.1.3,2023.1.3,75.03052701815521,
0,0,0,0,,,,1297.0280010700226,351.83271312713623,,,,,text_07,,1,1,1,Reading_Baseline_main_no_click,None,,Q3,3,c,False,OA01,001,no,1500,2000,195,250,500,2024-08-22_11h39.36.650,EXNAT_3_fMRI_Psychopy2023.1.3,2023.1.3,75.03052701815521,
0,0,0,0,,,,,,,,,,,,,,,,,,,,,,OA01,001,no,1500,2000,195,250,500,2024-08-22_11h39.36.650,EXNAT_3_fMRI_Psychopy2023.1.3,2023.1.3,75.03052701815521,
1,0,1,0,,,#88BA3F,1314.0727739334106,368.8774859905243,None,None,None,994.2293962902814,pseudo_text_06,1,2,1,2,Reading_pseudotext_no_click,None,Der,,,,,OA01,001,no,1500,2000,195,250,500,2024-08-22_11h39.36.650,EXNAT_3_fMRI_Psychopy2023.1.3,2023.1.3,75.03052701815521,
1,0,1,0,,,#F989A2,1315.0809500217438,369.8856620788574,None,None,None,1264.55679670866,pseudo_text_06,2,2,1,2,Reading_pseudotext_no_click,None,"Schwastwaff,",,,,,OA01,001,no,1500,2000,195,250,500,2024-08-22_11h39.36.650,EXNAT_3_fMRI_Psychopy2023.1.3,2023.1.3,75.03052701815521,
1,0,1,0,,,#2AB7EF,1316.3593409061432,371.16405296325684,None,None,None,994.2293962902814,pseudo_text_06,3,2,1,2,Reading_pseudotext_no_click,None,mit,,,,,OA01,001,no,1500,2000,195,250,500,2024-08-22_11h39.36.650,EXNAT_3_fMRI_Psychopy2023.1.3,2023.1.3,75.03052701815521,
1,0,1,0,,,#88BA3F,1317.358815908432,372.16352796554565,None,None,None,1129.3930964994706,pseudo_text_06,4,2,1,2,Reading_pseudotext_no_click,None,seiser,,,,,OA01,001,no,1500,2000,195,250,500,2024-08-22_11h39.36.650,EXNAT_3_fMRI_Psychopy2023.1.3,2023.1.3,75.03052701815521,
1,0,1,0,,,#F989A2,1318.4924340248108,373.29714608192444,None,None,None,1280.1651247049997,pseudo_text_06,5,2,1,2,Reading_pseudotext_no_click,None,einküsartiden,,,,,OA01,001,no,1500,2000,195,250,500,2024-08-22_11h39.36.650,EXNAT_3_fMRI_Psychopy2023.1.3,2023.1.3,75.03052701815521,
1,0,1,0,,,#88BA3F,1319.7850089073181,374.58972096443176,None,None,None,1093.8403929246497,pseudo_text_06,6,2,1,2,Reading_pseudotext_no_click,None,Froda,,,,,OA01,001,no,1500,2000,195,250,500,2024-08-22_11h39.36.650,EXNAT_3_fMRI_Psychopy2023.1.3,2023.1.3,75.03052701815521,
1,0,1,0,,,#D292F3,1320.8912148475647,375.69592690467834,None,None,None,994.2293962902814,pseudo_text_06,7,2,1,2,Reading_pseudotext_no_click,None,und,,,,,OA01,001,no,1500,2000,195,250,500,2024-08-22_11h39.36.650,EXNAT_3_fMRI_Psychopy2023.1.3,2023.1.3,75.03052701815521,
1,0,1,0,,,#F989A2,1321.8911368846893,376.695848941803,None,None,None,1129.3930964994706,pseudo_text_06,8,2,1,2,Reading_pseudotext_no_click,None,"Gauka,",,,,,OA01,001,no,1500,2000,195,250,500,2024-08-22_11h39.36.650,EXNAT_3_fMRI_Psychopy2023.1.3,2023.1.3,75.03052701815521,
1,0,1,0,,,#2AB7EF,1323.0233180522919,377.8280301094055,None,None,None,994.2293962902814,pseudo_text_06,9,2,1,2,Reading_pseudotext_no_click,None,ühn,,,,,OA01,001,no,1500,2000,195,250,500,2024-08-22_11h39.36.650,EXNAT_3_fMRI_Psychopy2023.1.3,2023.1.3,75.03052701815521,
1,0,1,0,,,#D292F3,1324.023479938507,378.8281919956207,None,None,None,1093.8403929246497,pseudo_text_06,10,2,1,2,Reading_pseudotext_no_click,None,jeses,,,,,OA01,001,no,1500,2000,195,250,500,2024-08-22_11h39.36.650,EXNAT_3_fMRI_Psychopy2023.1.3,2023.1.3,75.03052701815521,
1,0,1,0,,,#D292F3,1325.1297550201416,379.93446707725525,None,None,None,1050.3274004183786,pseudo_text_06,11,2,1,2,Reading_pseudotext_no_click,None,Japf,,,,,OA01,001,no,1500,2000,195,250,500,2024-08-22_11h39.36.650,EXNAT_3_fMRI_Psychopy2023.1.3,2023.1.3,75.03052701815521,
1,0,1,0,,,#2AB7EF,1326.1822228431702,380.9869349002838,None,None,None,1050.3274004183786,pseudo_text_06,12,2,1,2,Reading_pseudotext_no_click,None,eine,,,,,OA01,001,no,1500,2000,195,250,500,2024-08-22_11h39.36.650,EXNAT_3_fMRI_Psychopy2023.1.3,2023.1.3,75.03052701815521,
1,0,1,0,,,#F989A2,1327.2352938652039,382.0400059223175,None,None,None,1129.3930964994706,pseudo_text_06,13,2,1,2,Reading_pseudotext_no_click,None,stenke,,,,,OA01,001,no,1500,2000,195,250,500,2024-08-22_11h39.36.650,EXNAT_3_fMRI_Psychopy2023.1.3,2023.1.3,75.03052701815521,
1,0,1,0,,,#2AB7EF,1328.3689410686493,383.17365312576294,None,None,None,1308.069789214931,pseudo_text_06,14,2,1,2,Reading_pseudotext_no_click,None,Anziesuchtflent,,,,,OA01,001,no,1500,2000,195,250,500,2024-08-22_11h39.36.650,EXNAT_3_fMRI_Psychopy2023.1.3,2023.1.3,75.03052701815521,
1,0,1,0,,,#88BA3F,1329.6876549720764,384.49236702919006,None,None,None,994.2293962902814,pseudo_text_06,15,2,1,2,Reading_pseudotext_no_click,None,auf,,,,,OA01,001,no,1500,2000,195,250,500,2024-08-22_11h39.36.650,EXNAT_3_fMRI_Psychopy2023.1.3,2023.1.3,75.03052701815521,
1,0,1,0,,,#D292F3,1330.6875128746033,385.4922249317169,None,None,None,1229.004093133839,pseudo_text_06,16,2,1,2,Reading_pseudotext_no_click,None,zackheiche,,,,,OA01,001,no,1500,2000,195,250,500,2024-08-22_11h39.36.650,EXNAT_3_fMRI_Psychopy2023.1.3,2023.1.3,75.03052701815521,
1,0,1,0,,,#F989A2,1331.9283499717712,386.7330620288849,None,None,None,1294.6161792749754,pseudo_text_06,17,2,1,2,Reading_pseudotext_no_click,None,Zagurkeishaber,,,,,OA01,001,no,1500,2000,195,250,500,2024-08-22_11h39.36.650,EXNAT_3_fMRI_Psychopy2023.1.3,2023.1.3,75.03052701815521,
1,0,1,0,,,#F989A2,1333.2330479621887,388.03776001930237,None,None,None,1050.3274004183786,pseudo_text_06,18,2,1,2,Reading_pseudotext_no_click,None,"res,",,,,,OA01,001,no,1500,2000,195,250,500,2024-08-22_11h39.36.650,EXNAT_3_fMRI_Psychopy2023.1.3,2023.1.3,75.03052701815521,
1,0,1,0,,,#D292F3,1334.286010980606,389.0907230377197,None,None,None,994.2293962902814,pseudo_text_06,19,2,1,2,Reading_pseudotext_no_click,None,die,,,,,OA01,001,no,1500,2000,195,250,500,2024-08-22_11h39.36.650,EXNAT_3_fMRI_Psychopy2023.1.3,2023.1.3,75.03052701815521,
1,0,1,0,,,#F989A2,1335.284462928772,390.0891749858856,None,None,None,994.2293962902814,pseudo_text_06,20,2,1,2,Reading_pseudotext_no_click,None,die,,,,,OA01,001,no,1500,2000,195,250,500,2024-08-22_11h39.36.650,EXNAT_3_fMRI_Psychopy2023.1.3,2023.1.3,75.03052701815521,
1,0,1,0,,,#F989A2,1336.2861058712006,391.0908179283142,None,None,None,1229.004093133839,pseudo_text_06,21,2,1,2,Reading_pseudotext_no_click,None,ungetöffte,,,,,OA01,001,no,1500,2000,195,250,500,2024-08-22_11h39.36.650,EXNAT_3_fMRI_Psychopy2023.1.3,2023.1.3,75.03052701815521,
1,0,1,0,,,#D292F3,1337.525055885315,392.3297679424286,None,None,None,1208.4587925805629,pseudo_text_06,22,2,1,2,Reading_pseudotext_no_click,None,Schüsheit,,,,,OA01,001,no,1500,2000,195,250,500,2024-08-22_11h39.36.650,EXNAT_3_fMRI_Psychopy2023.1.3,2023.1.3,75.03052701815521,
1,0,1,0,,,#2AB7EF,1338.7381460666656,393.5428581237793,None,None,None,1129.3930964994706,pseudo_text_06,23,2,1,2,Reading_pseudotext_no_click,None,dieser,,,,,OA01,001,no,1500,2000,195,250,500,2024-08-22_11h39.36.650,EXNAT_3_fMRI_Psychopy2023.1.3,2023.1.3,75.03052701815521,
1,0,1,0,,,#88BA3F,1339.8716900348663,394.67640209198,None,None,None,1294.6161792749754,pseudo_text_06,24,2,1,2,Reading_pseudotext_no_click,None,sajechötiffsen,,,,,OA01,001,no,1500,2000,195,250,500,2024-08-22_11h39.36.650,EXNAT_3_fMRI_Psychopy2023.1.3,2023.1.3,75.03052701815521,
1,0,1,0,,,#2AB7EF,1341.1779279708862,395.9826400279999,None,None,None,1129.3930964994706,pseudo_text_06,25,2,1,2,Reading_pseudotext_no_click,None,Lediän,,,,,OA01,001,no,1500,2000,195,250,500,2024-08-22_11h39.36.650,EXNAT_3_fMRI_Psychopy2023.1.3,2023.1.3,75.03052701815521,
1,0,1,0,,,#2AB7EF,1342.3105618953705,397.11527395248413,None,None,None,1159.452479065786,pseudo_text_06,26,2,1,2,Reading_pseudotext_no_click,None,ermißen,,,,,OA01,001,no,1500,2000,195,250,500,2024-08-22_11h39.36.650,EXNAT_3_fMRI_Psychopy2023.1.3,2023.1.3,75.03052701815521,
1,0,1,0,,,#88BA3F,1343.4835360050201,398.2882480621338,None,None,None,1185.491100627568,pseudo_text_06,27,2,1,2,Reading_pseudotext_no_click,None,rächten.,,,,,OA01,001,no,1500,2000,195,250,500,2024-08-22_11h39.36.650,EXNAT_3_fMRI_Psychopy2023.1.3,2023.1.3,75.03052701815521,
1,0,1,0,,,#D292F3,1344.682450056076,399.4871621131897,None,None,None,1093.8403929246497,pseudo_text_06,28,2,1,2,Reading_pseudotext_no_click,None,Seise,,,,,OA01,001,no,1500,2000,195,250,500,2024-08-22_11h39.36.650,EXNAT_3_fMRI_Psychopy2023.1.3,2023.1.3,75.03052701815521,
1,0,1,0,,,#D292F3,1345.7887949943542,400.5935070514679,None,None,None,1159.452479065786,pseudo_text_06,29,2,1,2,Reading_pseudotext_no_click,None,pechten,,,,,OA01,001,no,1500,2000,195,250,500,2024-08-22_11h39.36.650,EXNAT_3_fMRI_Psychopy2023.1.3,2023.1.3,75.03052701815521,
1,0,1,0,,,#F989A2,1346.9619898796082,401.7667019367218,None,None,None,1159.452479065786,pseudo_text_06,30,2,1,2,Reading_pseudotext_no_click,None,"Sölder,",,,,,OA01,001,no,1500,2000,195,250,500,2024-08-22_11h39.36.650,EXNAT_3_fMRI_Psychopy2023.1.3,2023.1.3,75.03052701815521,
1,0,1,0,,,#F989A2,1348.1348519325256,402.9395639896393,None,None,None,1129.3930964994706,pseudo_text_06,31,2,1,2,Reading_pseudotext_no_click,None,spaben,,,,,OA01,001,no,1500,2000,195,250,500,2024-08-22_11h39.36.650,EXNAT_3_fMRI_Psychopy2023.1.3,2023.1.3,75.03052701815521,
1,0,1,0,,,#D292F3,1349.2681169509888,404.0728290081024,None,None,None,1093.8403929246497,pseudo_text_06,32,2,1,2,Reading_pseudotext_no_click,None,Niche,,,,,OA01,001,no,1500,2000,195,250,500,2024-08-22_11h39.36.650,EXNAT_3_fMRI_Psychopy2023.1.3,2023.1.3,75.03052701815521,
1,0,1,0,,,#88BA3F,1350.3736419677734,405.1783540248871,None,None,None,994.2293962902814,pseudo_text_06,33,2,1,2,Reading_pseudotext_no_click,None,und,,,,,OA01,001,no,1500,2000,195,250,500,2024-08-22_11h39.36.650,EXNAT_3_fMRI_Psychopy2023.1.3,2023.1.3,75.03052701815521,
1,0,1,0,,,#88BA3F,1351.3735420703888,406.17825412750244,None,None,None,1247.5895781956824,pseudo_text_06,34,2,1,2,Reading_pseudotext_no_click,None,wozereschen,,,,,OA01,001,no,1500,2000,195,250,500,2024-08-22_11h39.36.650,EXNAT_3_fMRI_Psychopy2023.1.3,2023.1.3,75.03052701815521,
1,0,1,0,,,#88BA3F,1352.626904964447,407.43161702156067,None,None,None,1208.4587925805629,pseudo_text_06,35,2,1,2,Reading_pseudotext_no_click,None,Belfknade,,,,,OA01,001,no,1500,2000,195,250,500,2024-08-22_11h39.36.650,EXNAT_3_fMRI_Psychopy2023.1.3,2023.1.3,75.03052701815521,
1,0,1,0,,,#F989A2,1353.8394870758057,408.6441991329193,None,None,None,1129.3930964994706,pseudo_text_06,36,2,1,2,Reading_pseudotext_no_click,None,gimden,,,,,OA01,001,no,1500,2000,195,250,500,2024-08-22_11h39.36.650,EXNAT_3_fMRI_Psychopy2023.1.3,2023.1.3,75.03052701815521,
1,0,1,0,,,#D292F3,1354.972198009491,409.7769100666046,None,None,None,994.2293962902814,pseudo_text_06,37,2,1,2,Reading_pseudotext_no_click,None,ein,,,,,OA01,001,no,1500,2000,195,250,500,2024-08-22_11h39.36.650,EXNAT_3_fMRI_Psychopy2023.1.3,2023.1.3,75.03052701815521,
1,0,1,0,,,#D292F3,1355.972650051117,410.7773621082306,None,None,None,1264.55679670866,pseudo_text_06,38,2,1,2,Reading_pseudotext_no_click,None,viefbaktiges,,,,,OA01,001,no,1500,2000,195,250,500,2024-08-22_11h39.36.650,EXNAT_3_fMRI_Psychopy2023.1.3,2023.1.3,75.03052701815521,
1,0,1,0,,,#2AB7EF,1357.2526259422302,412.0573379993439,None,None,None,1229.004093133839,pseudo_text_06,39,2,1,2,Reading_pseudotext_no_click,None,"Ärobystel,",,,,,OA01,001,no,1500,2000,195,250,500,2024-08-22_11h39.36.650,EXNAT_3_fMRI_Psychopy2023.1.3,2023.1.3,75.03052701815521,
1,0,1,0,,,#D292F3,1358.4907879829407,413.2955000400543,None,None,None,994.2293962902814,pseudo_text_06,40,2,1,2,Reading_pseudotext_no_click,None,das,,,,,OA01,001,no,1500,2000,195,250,500,2024-08-22_11h39.36.650,EXNAT_3_fMRI_Psychopy2023.1.3,2023.1.3,75.03052701815521,
1,0,1,0,,,#2AB7EF,1359.4904458522797,414.2951579093933,None,None,None,1050.3274004183786,pseudo_text_06,41,2,1,2,Reading_pseudotext_no_click,None,eine,,,,,OA01,001,no,1500,2000,195,250,500,2024-08-22_11h39.36.650,EXNAT_3_fMRI_Psychopy2023.1.3,2023.1.3,75.03052701815521,
1,0,1,0,,,#F989A2,1360.5435390472412,415.34825110435486,None,None,None,1093.8403929246497,pseudo_text_06,42,2,1,2,Reading_pseudotext_no_click,None,spowe,,,,,OA01,001,no,1500,2000,195,250,500,2024-08-22_11h39.36.650,EXNAT_3_fMRI_Psychopy2023.1.3,2023.1.3,75.03052701815521,
1,0,1,0,,,#88BA3F,1361.6502799987793,416.45499205589294,None,None,None,1050.3274004183786,pseudo_text_06,43,2,1,2,Reading_pseudotext_no_click,None,Zakt,,,,,OA01,001,no,1500,2000,195,250,500,2024-08-22_11h39.36.650,EXNAT_3_fMRI_Psychopy2023.1.3,2023.1.3,75.03052701815521,
1,0,1,0,,,#88BA3F,1362.7031998634338,417.5079119205475,None,None,None,994.2293962902814,pseudo_text_06,44,2,1,2,Reading_pseudotext_no_click,None,von,,,,,OA01,001,no,1500,2000,195,250,500,2024-08-22_11h39.36.650,EXNAT_3_fMRI_Psychopy2023.1.3,2023.1.3,75.03052701815521,
1,0,1,0,,,#D292F3,1363.7035229206085,418.50823497772217,None,None,None,1093.8403929246497,pseudo_text_06,45,2,1,2,Reading_pseudotext_no_click,None,Mier-,,,,,OA01,001,no,1500,2000,195,250,500,2024-08-22_11h39.36.650,EXNAT_3_fMRI_Psychopy2023.1.3,2023.1.3,75.03052701815521,
1,0,1,0,,,#F989A2,1364.8086018562317,419.61331391334534,None,None,None,994.2293962902814,pseudo_text_06,46,2,1,2,Reading_pseudotext_no_click,None,und,,,,,OA01,001,no,1500,2000,195,250,500,2024-08-22_11h39.36.650,EXNAT_3_fMRI_Psychopy2023.1.3,2023.1.3,75.03052701815521,
1,0,1,0,,,#2AB7EF,1365.8087830543518,420.61349511146545,None,None,None,1280.1651247049997,pseudo_text_06,47,2,1,2,Reading_pseudotext_no_click,None,Sprannenulten,,,,,OA01,001,no,1500,2000,195,250,500,2024-08-22_11h39.36.650,EXNAT_3_fMRI_Psychopy2023.1.3,2023.1.3,75.03052701815521,
1,0,1,0,,,#88BA3F,1367.1019730567932,421.90668511390686,None,None,None,1247.5895781956824,pseudo_text_06,48,2,1,2,Reading_pseudotext_no_click,None,benermerzt.,,,,,OA01,001,no,1500,2000,195,250,500,2024-08-22_11h39.36.650,EXNAT_3_fMRI_Psychopy2023.1.3,2023.1.3,75.03052701815521,
1,0,1,0,,,#88BA3F,1368.3542749881744,423.1589870452881,None,None,None,994.2293962902814,pseudo_text_06,49,2,1,2,Reading_pseudotext_no_click,None,Die,,,,,OA01,001,no,1500,2000,195,250,500,2024-08-22_11h39.36.650,EXNAT_3_fMRI_Psychopy2023.1.3,2023.1.3,75.03052701815521,
1,0,1,0,,,#88BA3F,1369.3543870449066,424.15909910202026,None,None,None,1129.3930964994706,pseudo_text_06,50,2,1,2,Reading_pseudotext_no_click,None,Lediän,,,,,OA01,001,no,1500,2000,195,250,500,2024-08-22_11h39.36.650,EXNAT_3_fMRI_Psychopy2023.1.3,2023.1.3,75.03052701815521,
1,0,1,0,,,#D292F3,1370.486732006073,425.29144406318665,None,None,None,994.2293962902814,pseudo_text_06,51,2,1,2,Reading_pseudotext_no_click,None,ost,,,,,OA01,001,no,1500,2000,195,250,500,2024-08-22_11h39.36.650,EXNAT_3_fMRI_Psychopy2023.1.3,2023.1.3,75.03052701815521,
1,0,1,0,,,#2AB7EF,1371.4867689609528,426.2914810180664,None,None,None,1093.8403929246497,pseudo_text_06,52,2,1,2,Reading_pseudotext_no_click,None,gicht,,,,,OA01,001,no,1500,2000,195,250,500,2024-08-22_11h39.36.650,EXNAT_3_fMRI_Psychopy2023.1.3,2023.1.3,75.03052701815521,
1,0,1,0,,,#F989A2,1372.5915958881378,427.39630794525146,None,None,None,994.2293962902814,pseudo_text_06,53,2,1,2,Reading_pseudotext_no_click,None,hor,,,,,OA01,001,no,1500,2000,195,250,500,2024-08-22_11h39.36.650,EXNAT_3_fMRI_Psychopy2023.1.3,2023.1.3,75.03052701815521,
1,0,1,0,,,#2AB7EF,1373.5915968418121,428.3963088989258,None,None,None,994.2293962902814,pseudo_text_06,54,2,1,2,Reading_pseudotext_no_click,None,bei,,,,,OA01,001,no,1500,2000,195,250,500,2024-08-22_11h39.36.650,EXNAT_3_fMRI_Psychopy2023.1.3,2023.1.3,75.03052701815521,
1,0,1,0,,,#F989A2,1374.5913569927216,429.3960690498352,None,None,None,1229.004093133839,pseudo_text_06,55,2,1,2,Reading_pseudotext_no_click,None,Fliwehrern,,,,,OA01,001,no,1500,2000,195,250,500,2024-08-22_11h39.36.650,EXNAT_3_fMRI_Psychopy2023.1.3,2023.1.3,75.03052701815521,
1,0,1,0,,,#F989A2,1375.8315320014954,430.636244058609,None,None,None,994.2293962902814,pseudo_text_06,56,2,1,2,Reading_pseudotext_no_click,None,und,,,,,OA01,001,no,1500,2000,195,250,500,2024-08-22_11h39.36.650,EXNAT_3_fMRI_Psychopy2023.1.3,2023.1.3,75.03052701815521,
1,0,1,0,,,#F989A2,1376.8306109905243,431.63532304763794,None,None,None,1264.55679670866,pseudo_text_06,57,2,1,2,Reading_pseudotext_no_click,None,Sadspicklern,,,,,OA01,001,no,1500,2000,195,250,500,2024-08-22_11h39.36.650,EXNAT_3_fMRI_Psychopy2023.1.3,2023.1.3,75.03052701815521,
1,0,1,0,,,#D292F3,1378.1097700595856,432.9144821166992,None,None,None,1185.491100627568,pseudo_text_06,58,2,1,2,Reading_pseudotext_no_click,None,"beninnt,",,,,,OA01,001,no,1500,2000,195,250,500,2024-08-22_11h39.36.650,EXNAT_3_fMRI_Psychopy2023.1.3,2023.1.3,75.03052701815521,
1,0,1,0,,,#D292F3,1379.309152841568,434.11386489868164,None,None,None,1159.452479065786,pseudo_text_06,59,2,1,2,Reading_pseudotext_no_click,None,zündern,,,,,OA01,001,no,1500,2000,195,250,500,2024-08-22_11h39.36.650,EXNAT_3_fMRI_Psychopy2023.1.3,2023.1.3,75.03052701815521,
1,0,1,0,,,#88BA3F,1380.4819629192352,435.2866749763489,None,None,None,1050.3274004183786,pseudo_text_06,60,2,1,2,Reading_pseudotext_no_click,None,eich,,,,,OA01,001,no,1500,2000,195,250,500,2024-08-22_11h39.36.650,EXNAT_3_fMRI_Psychopy2023.1.3,2023.1.3,75.03052701815521,
1,0,1,0,,,#D292F3,1381.534896850586,436.3396089076996,None,None,None,994.2293962902814,pseudo_text_06,61,2,1,2,Reading_pseudotext_no_click,None,bei,,,,,OA01,001,no,1500,2000,195,250,500,2024-08-22_11h39.36.650,EXNAT_3_fMRI_Psychopy2023.1.3,2023.1.3,75.03052701815521,
1,0,1,0,,,#D292F3,1382.5349750518799,437.33968710899353,None,None,None,1208.4587925805629,pseudo_text_06,62,2,1,2,Reading_pseudotext_no_click,None,Sabterern,,,,,OA01,001,no,1500,2000,195,250,500,2024-08-22_11h39.36.650,EXNAT_3_fMRI_Psychopy2023.1.3,2023.1.3,75.03052701815521,
1,0,1,0,,,#F989A2,1383.7479560375214,438.552668094635,None,None,None,1050.3274004183786,pseudo_text_06,63,2,1,2,Reading_pseudotext_no_click,None,self,,,,,OA01,001,no,1500,2000,195,250,500,2024-08-22_11h39.36.650,EXNAT_3_fMRI_Psychopy2023.1.3,2023.1.3,75.03052701815521,
1,0,1,0,,,#2AB7EF,1384.8138859272003,439.61859798431396,None,None,None,1185.491100627568,pseudo_text_06,64,2,1,2,Reading_pseudotext_no_click,None,bedieft.,,,,,OA01,001,no,1500,2000,195,250,500,2024-08-22_11h39.36.650,EXNAT_3_fMRI_Psychopy2023.1.3,2023.1.3,75.03052701815521,
1,0,1,0,,,#2AB7EF,1386.0133118629456,440.8180239200592,None,None,None,1093.8403929246497,pseudo_text_06,65,2,1,2,Reading_pseudotext_no_click,None,Diese,,,,,OA01,001,no,1500,2000,195,250,500,2024-08-22_11h39.36.650,EXNAT_3_fMRI_Psychopy2023.1.3,2023.1.3,75.03052701815521,
