loop_run1_single_reading.thisRepN,loop_run1_single_reading.thisTrialN,loop_run1_single_reading.thisN,loop_run1_single_reading.thisIndex,loop_run2_single_nback.thisRepN,loop_run2_single_nback.thisTrialN,loop_run2_single_nback.thisN,loop_run2_single_nback.thisIndex,loop_dual_task_blocks.thisRepN,loop_dual_task_blocks.thisTrialN,loop_dual_task_blocks.thisN,loop_dual_task_blocks.thisIndex,TriggerCount,TriggerTime,colour,global_onset_time,onset_time_rel2trigger,target,button_pressed,nback_response,nback_RT,duration,trial_nr,block_nr_exp,run_nr,block_nr_run,block_name,n-back_level,text_nr,word,question,chosen_ans,ans_correct,participant,session,testing_mode,RT_per_rectangle_oneback_single,RT_per_rectangle_twoback_single,RT_per_letter_baseline,RT_per_letter_oneback_dual,RT_per_letter_twoback_dual,date,expName,psychopyVersion,frameRate,
0,0,0,0,,,,,,,,,1,7.8332459926605225,,,,,,,,,,,,,,,,,,,,OA01,001,no,1500,2000,150,250,500,2024-08-22_12h15.27.876,EXNAT_3_fMRI_Psychopy2023.1.3,2023.1.3,75.01026532466325,
1,0,1,0,,,,,,,,,,,,,,,,,,,,,,,,,,,,,,OA01,001,no,1500,2000,150,250,500,2024-08-22_12h15.27.876,EXNAT_3_fMRI_Psychopy2023.1.3,2023.1.3,75.01026532466325,
2,0,2,0,,,,,,,,,,,,,,,,,,,,,,,,,,,,,,OA01,001,no,1500,2000,150,250,500,2024-08-22_12h15.27.876,EXNAT_3_fMRI_Psychopy2023.1.3,2023.1.3,75.01026532466325,
3,0,3,0,,,,,,,,,,,,,,,,,,,,,,,,,,,,,,OA01,001,no,1500,2000,150,250,500,2024-08-22_12h15.27.876,EXNAT_3_fMRI_Psychopy2023.1.3,2023.1.3,75.01026532466325,
4,0,4,0,,,,,,,,,,,,,,,,,,,,,,,,,,,,,,OA01,001,no,1500,2000,150,250,500,2024-08-22_12h15.27.876,EXNAT_3_fMRI_Psychopy2023.1.3,2023.1.3,75.01026532466325,
,,,,0,0,0,0,,,,,1,38.929641008377075,#F989A2,47.9143271446228,8.984686136245728,False,NA,correct rejection,None,2000.0,1,3,2,1,2back_single_main_no_click,2,,,,,,OA01,001,no,1500,2000,150,250,500,2024-08-22_12h15.27.876,EXNAT_3_fMRI_Psychopy2023.1.3,2023.1.3,75.01026532466325,
,,,,0,0,0,0,,,,,,,#88BA3F,50.14035415649414,11.210713148117065,False,NA,correct rejection,None,2000.0,2,3,2,1,2back_single_main_no_click,2,,,,,,OA01,001,no,1500,2000,150,250,500,2024-08-22_12h15.27.876,EXNAT_3_fMRI_Psychopy2023.1.3,2023.1.3,75.01026532466325,
,,,,0,0,0,0,,,,,,,#2AB7EF,52.366268157958984,13.43662714958191,False,NA,correct rejection,None,2000.0,3,3,2,1,2back_single_main_no_click,2,,,,,,OA01,001,no,1500,2000,150,250,500,2024-08-22_12h15.27.876,EXNAT_3_fMRI_Psychopy2023.1.3,2023.1.3,75.01026532466325,
,,,,0,0,0,0,,,,,,,#D292F3,54.5921151638031,15.662474155426025,False,NA,correct rejection,None,2000.0,4,3,2,1,2back_single_main_no_click,2,,,,,,OA01,001,no,1500,2000,150,250,500,2024-08-22_12h15.27.876,EXNAT_3_fMRI_Psychopy2023.1.3,2023.1.3,75.01026532466325,
,,,,0,0,0,0,,,,,,,#88BA3F,56.81799101829529,17.888350009918213,False,NA,correct rejection,None,2000.0,5,3,2,1,2back_single_main_no_click,2,,,,,,OA01,001,no,1500,2000,150,250,500,2024-08-22_12h15.27.876,EXNAT_3_fMRI_Psychopy2023.1.3,2023.1.3,75.01026532466325,
,,,,0,0,0,0,,,,,,,#F989A2,59.04389500617981,20.114253997802734,False,NA,correct rejection,None,2000.0,6,3,2,1,2back_single_main_no_click,2,,,,,,OA01,001,no,1500,2000,150,250,500,2024-08-22_12h15.27.876,EXNAT_3_fMRI_Psychopy2023.1.3,2023.1.3,75.01026532466325,
,,,,0,0,0,0,,,,,,,#2AB7EF,61.269803047180176,22.3401620388031,False,NA,correct rejection,None,2000.0,7,3,2,1,2back_single_main_no_click,2,,,,,,OA01,001,no,1500,2000,150,250,500,2024-08-22_12h15.27.876,EXNAT_3_fMRI_Psychopy2023.1.3,2023.1.3,75.01026532466325,
,,,,0,0,0,0,,,,,,,#88BA3F,63.49568200111389,24.566040992736816,False,1,false alarm,1146.0001468658447,2000.0,8,3,2,1,2back_single_main_no_click,2,,,,,,OA01,001,no,1500,2000,150,250,500,2024-08-22_12h15.27.876,EXNAT_3_fMRI_Psychopy2023.1.3,2023.1.3,75.01026532466325,
,,,,0,0,0,0,,,,,,,#2AB7EF,65.72156596183777,26.791924953460693,True,1,hit,999.4688034057617,2000.0,9,3,2,1,2back_single_main_no_click,2,,,,,,OA01,001,no,1500,2000,150,250,500,2024-08-22_12h15.27.876,EXNAT_3_fMRI_Psychopy2023.1.3,2023.1.3,75.01026532466325,
,,,,0,0,0,0,,,,,,,#F989A2,67.94746804237366,29.017827033996582,False,NA,correct rejection,None,2000.0,10,3,2,1,2back_single_main_no_click,2,,,,,,OA01,001,no,1500,2000,150,250,500,2024-08-22_12h15.27.876,EXNAT_3_fMRI_Psychopy2023.1.3,2023.1.3,75.01026532466325,
,,,,0,0,0,0,,,,,,,#D292F3,70.17333507537842,31.243694067001343,False,NA,correct rejection,None,2000.0,11,3,2,1,2back_single_main_no_click,2,,,,,,OA01,001,no,1500,2000,150,250,500,2024-08-22_12h15.27.876,EXNAT_3_fMRI_Psychopy2023.1.3,2023.1.3,75.01026532466325,
,,,,0,0,0,0,,,,,,,#D292F3,72.3991870880127,33.46954607963562,False,NA,correct rejection,None,2000.0,12,3,2,1,2back_single_main_no_click,2,,,,,,OA01,001,no,1500,2000,150,250,500,2024-08-22_12h15.27.876,EXNAT_3_fMRI_Psychopy2023.1.3,2023.1.3,75.01026532466325,
,,,,0,0,0,0,,,,,,,#D292F3,74.62506914138794,35.695428133010864,True,1,hit,479.60591316223145,2000.0,13,3,2,1,2back_single_main_no_click,2,,,,,,OA01,001,no,1500,2000,150,250,500,2024-08-22_12h15.27.876,EXNAT_3_fMRI_Psychopy2023.1.3,2023.1.3,75.01026532466325,
,,,,0,0,0,0,,,,,,,#2AB7EF,76.85098004341125,37.92133903503418,False,NA,correct rejection,None,2000.0,14,3,2,1,2back_single_main_no_click,2,,,,,,OA01,001,no,1500,2000,150,250,500,2024-08-22_12h15.27.876,EXNAT_3_fMRI_Psychopy2023.1.3,2023.1.3,75.01026532466325,
,,,,0,0,0,0,,,,,,,#D292F3,79.07683396339417,40.14719295501709,True,NA,miss,None,2000.0,15,3,2,1,2back_single_main_no_click,2,,,,,,OA01,001,no,1500,2000,150,250,500,2024-08-22_12h15.27.876,EXNAT_3_fMRI_Psychopy2023.1.3,2023.1.3,75.01026532466325,
,,,,0,0,0,0,,,,,,,#2AB7EF,81.30273413658142,42.373093128204346,True,NA,miss,None,2000.0,16,3,2,1,2back_single_main_no_click,2,,,,,,OA01,001,no,1500,2000,150,250,500,2024-08-22_12h15.27.876,EXNAT_3_fMRI_Psychopy2023.1.3,2023.1.3,75.01026532466325,
,,,,0,0,0,0,,,,,,,#2AB7EF,83.52841210365295,44.59877109527588,False,1,false alarm,773.000955581665,2000.0,17,3,2,1,2back_single_main_no_click,2,,,,,,OA01,001,no,1500,2000,150,250,500,2024-08-22_12h15.27.876,EXNAT_3_fMRI_Psychopy2023.1.3,2023.1.3,75.01026532466325,
,,,,0,0,0,0,,,,,,,#88BA3F,85.7545120716095,46.82487106323242,False,NA,correct rejection,None,2000.0,18,3,2,1,2back_single_main_no_click,2,,,,,,OA01,001,no,1500,2000,150,250,500,2024-08-22_12h15.27.876,EXNAT_3_fMRI_Psychopy2023.1.3,2023.1.3,75.01026532466325,
,,,,0,0,0,0,,,,,,,#88BA3F,87.9803991317749,49.05075812339783,False,1,false alarm,546.2720394134521,2000.0,19,3,2,1,2back_single_main_no_click,2,,,,,,OA01,001,no,1500,2000,150,250,500,2024-08-22_12h15.27.876,EXNAT_3_fMRI_Psychopy2023.1.3,2023.1.3,75.01026532466325,
,,,,0,0,0,0,,,,,,,#F989A2,90.20625495910645,51.27661395072937,False,NA,correct rejection,None,2000.0,20,3,2,1,2back_single_main_no_click,2,,,,,,OA01,001,no,1500,2000,150,250,500,2024-08-22_12h15.27.876,EXNAT_3_fMRI_Psychopy2023.1.3,2023.1.3,75.01026532466325,
,,,,0,0,0,0,,,,,,,#D292F3,92.43216800689697,53.5025269985199,False,NA,correct rejection,None,2000.0,21,3,2,1,2back_single_main_no_click,2,,,,,,OA01,001,no,1500,2000,150,250,500,2024-08-22_12h15.27.876,EXNAT_3_fMRI_Psychopy2023.1.3,2023.1.3,75.01026532466325,
,,,,0,0,0,0,,,,,,,#F989A2,94.65801811218262,55.72837710380554,True,1,hit,852.8831005096436,2000.0,22,3,2,1,2back_single_main_no_click,2,,,,,,OA01,001,no,1500,2000,150,250,500,2024-08-22_12h15.27.876,EXNAT_3_fMRI_Psychopy2023.1.3,2023.1.3,75.01026532466325,
,,,,0,0,0,0,,,,,,,#88BA3F,96.88392806053162,57.95428705215454,False,NA,correct rejection,None,2000.0,23,3,2,1,2back_single_main_no_click,2,,,,,,OA01,001,no,1500,2000,150,250,500,2024-08-22_12h15.27.876,EXNAT_3_fMRI_Psychopy2023.1.3,2023.1.3,75.01026532466325,
,,,,0,0,0,0,,,,,,,#F989A2,99.10982012748718,60.18017911911011,True,NA,miss,None,2000.0,24,3,2,1,2back_single_main_no_click,2,,,,,,OA01,001,no,1500,2000,150,250,500,2024-08-22_12h15.27.876,EXNAT_3_fMRI_Psychopy2023.1.3,2023.1.3,75.01026532466325,
,,,,0,0,0,0,,,,,,,#F989A2,101.33566212654114,62.40602111816406,False,NA,correct rejection,None,2000.0,25,3,2,1,2back_single_main_no_click,2,,,,,,OA01,001,no,1500,2000,150,250,500,2024-08-22_12h15.27.876,EXNAT_3_fMRI_Psychopy2023.1.3,2023.1.3,75.01026532466325,
,,,,0,0,0,0,,,,,,,#2AB7EF,103.56157398223877,64.6319329738617,False,NA,correct rejection,None,2000.0,26,3,2,1,2back_single_main_no_click,2,,,,,,OA01,001,no,1500,2000,150,250,500,2024-08-22_12h15.27.876,EXNAT_3_fMRI_Psychopy2023.1.3,2023.1.3,75.01026532466325,
,,,,0,0,0,0,,,,,,,#D292F3,105.78744912147522,66.85780811309814,False,NA,correct rejection,None,2000.0,27,3,2,1,2back_single_main_no_click,2,,,,,,OA01,001,no,1500,2000,150,250,500,2024-08-22_12h15.27.876,EXNAT_3_fMRI_Psychopy2023.1.3,2023.1.3,75.01026532466325,
,,,,0,0,0,0,,,,,,,#88BA3F,108.01335501670837,69.0837140083313,False,NA,correct rejection,None,2000.0,28,3,2,1,2back_single_main_no_click,2,,,,,,OA01,001,no,1500,2000,150,250,500,2024-08-22_12h15.27.876,EXNAT_3_fMRI_Psychopy2023.1.3,2023.1.3,75.01026532466325,
,,,,0,0,0,0,,,,,,,#F989A2,110.23918104171753,71.30954003334045,False,NA,correct rejection,None,2000.0,29,3,2,1,2back_single_main_no_click,2,,,,,,OA01,001,no,1500,2000,150,250,500,2024-08-22_12h15.27.876,EXNAT_3_fMRI_Psychopy2023.1.3,2023.1.3,75.01026532466325,
,,,,0,0,0,0,,,,,,,#D292F3,112.4650650024414,73.53542399406433,False,NA,correct rejection,None,2000.0,30,3,2,1,2back_single_main_no_click,2,,,,,,OA01,001,no,1500,2000,150,250,500,2024-08-22_12h15.27.876,EXNAT_3_fMRI_Psychopy2023.1.3,2023.1.3,75.01026532466325,
,,,,0,0,0,0,,,,,,,#88BA3F,114.69093894958496,75.76129794120789,False,NA,correct rejection,None,2000.0,31,3,2,1,2back_single_main_no_click,2,,,,,,OA01,001,no,1500,2000,150,250,500,2024-08-22_12h15.27.876,EXNAT_3_fMRI_Psychopy2023.1.3,2023.1.3,75.01026532466325,
,,,,0,0,0,0,,,,,,,#2AB7EF,116.91682505607605,77.98718404769897,False,NA,correct rejection,None,2000.0,32,3,2,1,2back_single_main_no_click,2,,,,,,OA01,001,no,1500,2000,150,250,500,2024-08-22_12h15.27.876,EXNAT_3_fMRI_Psychopy2023.1.3,2023.1.3,75.01026532466325,
,,,,0,0,0,0,,,,,,,#2AB7EF,119.14292216300964,80.21328115463257,False,NA,correct rejection,None,2000.0,33,3,2,1,2back_single_main_no_click,2,,,,,,OA01,001,no,1500,2000,150,250,500,2024-08-22_12h15.27.876,EXNAT_3_fMRI_Psychopy2023.1.3,2023.1.3,75.01026532466325,
,,,,0,0,0,0,,,,,,,#F989A2,121.36859703063965,82.43895602226257,False,NA,correct rejection,None,2000.0,34,3,2,1,2back_single_main_no_click,2,,,,,,OA01,001,no,1500,2000,150,250,500,2024-08-22_12h15.27.876,EXNAT_3_fMRI_Psychopy2023.1.3,2023.1.3,75.01026532466325,
,,,,0,0,0,0,,,,,,,#88BA3F,123.59464406967163,84.66500306129456,False,NA,correct rejection,None,2000.0,35,3,2,1,2back_single_main_no_click,2,,,,,,OA01,001,no,1500,2000,150,250,500,2024-08-22_12h15.27.876,EXNAT_3_fMRI_Psychopy2023.1.3,2023.1.3,75.01026532466325,
,,,,0,0,0,0,,,,,,,#D292F3,125.82037210464478,86.8907310962677,False,NA,correct rejection,None,2000.0,36,3,2,1,2back_single_main_no_click,2,,,,,,OA01,001,no,1500,2000,150,250,500,2024-08-22_12h15.27.876,EXNAT_3_fMRI_Psychopy2023.1.3,2023.1.3,75.01026532466325,
,,,,0,0,0,0,,,,,,,#D292F3,128.04624199867249,89.11660099029541,False,NA,correct rejection,None,2000.0,37,3,2,1,2back_single_main_no_click,2,,,,,,OA01,001,no,1500,2000,150,250,500,2024-08-22_12h15.27.876,EXNAT_3_fMRI_Psychopy2023.1.3,2023.1.3,75.01026532466325,
,,,,0,0,0,0,,,,,,,#D292F3,130.27189707756042,91.34225606918335,True,1,hit,852.8580665588379,2000.0,38,3,2,1,2back_single_main_no_click,2,,,,,,OA01,001,no,1500,2000,150,250,500,2024-08-22_12h15.27.876,EXNAT_3_fMRI_Psychopy2023.1.3,2023.1.3,75.01026532466325,
,,,,0,0,0,0,,,,,,,#2AB7EF,132.49785804748535,93.56821703910828,False,NA,correct rejection,None,2000.0,39,3,2,1,2back_single_main_no_click,2,,,,,,OA01,001,no,1500,2000,150,250,500,2024-08-22_12h15.27.876,EXNAT_3_fMRI_Psychopy2023.1.3,2023.1.3,75.01026532466325,
,,,,0,0,0,0,,,,,,,#88BA3F,134.72366213798523,95.79402112960815,False,NA,correct rejection,None,2000.0,40,3,2,1,2back_single_main_no_click,2,,,,,,OA01,001,no,1500,2000,150,250,500,2024-08-22_12h15.27.876,EXNAT_3_fMRI_Psychopy2023.1.3,2023.1.3,75.01026532466325,
,,,,0,0,0,0,,,,,,,#2AB7EF,136.94954109191895,98.01990008354187,True,1,hit,812.8759860992432,2000.0,41,3,2,1,2back_single_main_no_click,2,,,,,,OA01,001,no,1500,2000,150,250,500,2024-08-22_12h15.27.876,EXNAT_3_fMRI_Psychopy2023.1.3,2023.1.3,75.01026532466325,
,,,,0,0,0,0,,,,,,,#F989A2,139.17543506622314,100.24579405784607,False,NA,correct rejection,None,2000.0,42,3,2,1,2back_single_main_no_click,2,,,,,,OA01,001,no,1500,2000,150,250,500,2024-08-22_12h15.27.876,EXNAT_3_fMRI_Psychopy2023.1.3,2023.1.3,75.01026532466325,
,,,,0,0,0,0,,,,,,,#D292F3,141.4013090133667,102.47166800498962,False,NA,correct rejection,None,2000.0,43,3,2,1,2back_single_main_no_click,2,,,,,,OA01,001,no,1500,2000,150,250,500,2024-08-22_12h15.27.876,EXNAT_3_fMRI_Psychopy2023.1.3,2023.1.3,75.01026532466325,
,,,,0,0,0,0,,,,,,,#F989A2,143.62720203399658,104.6975610256195,True,1,hit,852.9610633850098,2000.0,44,3,2,1,2back_single_main_no_click,2,,,,,,OA01,001,no,1500,2000,150,250,500,2024-08-22_12h15.27.876,EXNAT_3_fMRI_Psychopy2023.1.3,2023.1.3,75.01026532466325,
,,,,0,0,0,0,,,,,,,#F989A2,145.8530831336975,106.92344212532043,False,NA,correct rejection,None,2000.0,45,3,2,1,2back_single_main_no_click,2,,,,,,OA01,001,no,1500,2000,150,250,500,2024-08-22_12h15.27.876,EXNAT_3_fMRI_Psychopy2023.1.3,2023.1.3,75.01026532466325,
,,,,0,0,0,0,,,,,,,#88BA3F,148.07895803451538,109.1493170261383,False,NA,correct rejection,None,2000.0,46,3,2,1,2back_single_main_no_click,2,,,,,,OA01,001,no,1500,2000,150,250,500,2024-08-22_12h15.27.876,EXNAT_3_fMRI_Psychopy2023.1.3,2023.1.3,75.01026532466325,
,,,,0,0,0,0,,,,,,,#2AB7EF,150.304829120636,111.37518811225891,False,NA,correct rejection,None,2000.0,47,3,2,1,2back_single_main_no_click,2,,,,,,OA01,001,no,1500,2000,150,250,500,2024-08-22_12h15.27.876,EXNAT_3_fMRI_Psychopy2023.1.3,2023.1.3,75.01026532466325,
,,,,0,0,0,0,,,,,,,#88BA3F,152.53071403503418,113.6010730266571,True,1,hit,599.6370315551758,2000.0,48,3,2,1,2back_single_main_no_click,2,,,,,,OA01,001,no,1500,2000,150,250,500,2024-08-22_12h15.27.876,EXNAT_3_fMRI_Psychopy2023.1.3,2023.1.3,75.01026532466325,
,,,,0,0,0,0,,,,,,,#D292F3,154.75660300254822,115.82696199417114,False,NA,correct rejection,None,2000.0,49,3,2,1,2back_single_main_no_click,2,,,,,,OA01,001,no,1500,2000,150,250,500,2024-08-22_12h15.27.876,EXNAT_3_fMRI_Psychopy2023.1.3,2023.1.3,75.01026532466325,
,,,,0,0,0,0,,,,,,,#F989A2,156.9824731349945,118.05283212661743,False,NA,correct rejection,None,2000.0,50,3,2,1,2back_single_main_no_click,2,,,,,,OA01,001,no,1500,2000,150,250,500,2024-08-22_12h15.27.876,EXNAT_3_fMRI_Psychopy2023.1.3,2023.1.3,75.01026532466325,
,,,,0,0,0,0,,,,,,,#2AB7EF,159.20835614204407,120.27871513366699,False,NA,correct rejection,None,2000.0,51,3,2,1,2back_single_main_no_click,2,,,,,,OA01,001,no,1500,2000,150,250,500,2024-08-22_12h15.27.876,EXNAT_3_fMRI_Psychopy2023.1.3,2023.1.3,75.01026532466325,
,,,,0,0,0,0,,,,,,,#2AB7EF,161.4342451095581,122.50460410118103,False,NA,correct rejection,None,2000.0,52,3,2,1,2back_single_main_no_click,2,,,,,,OA01,001,no,1500,2000,150,250,500,2024-08-22_12h15.27.876,EXNAT_3_fMRI_Psychopy2023.1.3,2023.1.3,75.01026532466325,
,,,,0,0,0,0,,,,,,,#F989A2,163.66012811660767,124.73048710823059,False,NA,correct rejection,None,2000.0,53,3,2,1,2back_single_main_no_click,2,,,,,,OA01,001,no,1500,2000,150,250,500,2024-08-22_12h15.27.876,EXNAT_3_fMRI_Psychopy2023.1.3,2023.1.3,75.01026532466325,
,,,,0,0,0,0,,,,,,,#D292F3,165.88601207733154,126.95637106895447,False,NA,correct rejection,None,2000.0,54,3,2,1,2back_single_main_no_click,2,,,,,,OA01,001,no,1500,2000,150,250,500,2024-08-22_12h15.27.876,EXNAT_3_fMRI_Psychopy2023.1.3,2023.1.3,75.01026532466325,
,,,,0,0,0,0,,,,,,,#2AB7EF,168.1118869781494,129.18224596977234,False,NA,correct rejection,None,2000.0,55,3,2,1,2back_single_main_no_click,2,,,,,,OA01,001,no,1500,2000,150,250,500,2024-08-22_12h15.27.876,EXNAT_3_fMRI_Psychopy2023.1.3,2023.1.3,75.01026532466325,
,,,,0,0,0,0,,,,,,,#88BA3F,170.33777904510498,131.4081380367279,False,NA,correct rejection,None,2000.0,56,3,2,1,2back_single_main_no_click,2,,,,,,OA01,001,no,1500,2000,150,250,500,2024-08-22_12h15.27.876,EXNAT_3_fMRI_Psychopy2023.1.3,2023.1.3,75.01026532466325,
,,,,0,0,0,0,,,,,,,#88BA3F,172.56367301940918,133.6340320110321,False,NA,correct rejection,None,2000.0,57,3,2,1,2back_single_main_no_click,2,,,,,,OA01,001,no,1500,2000,150,250,500,2024-08-22_12h15.27.876,EXNAT_3_fMRI_Psychopy2023.1.3,2023.1.3,75.01026532466325,
,,,,0,0,0,0,,,,,,,#F989A2,174.78954315185547,135.8599021434784,False,NA,correct rejection,None,2000.0,58,3,2,1,2back_single_main_no_click,2,,,,,,OA01,001,no,1500,2000,150,250,500,2024-08-22_12h15.27.876,EXNAT_3_fMRI_Psychopy2023.1.3,2023.1.3,75.01026532466325,
,,,,0,0,0,0,,,,,,,#D292F3,177.01542115211487,138.0857801437378,False,NA,correct rejection,None,2000.0,59,3,2,1,2back_single_main_no_click,2,,,,,,OA01,001,no,1500,2000,150,250,500,2024-08-22_12h15.27.876,EXNAT_3_fMRI_Psychopy2023.1.3,2023.1.3,75.01026532466325,
,,,,0,0,0,0,,,,,,,#88BA3F,179.24130702018738,140.3116660118103,False,NA,correct rejection,None,2000.0,60,3,2,1,2back_single_main_no_click,2,,,,,,OA01,001,no,1500,2000,150,250,500,2024-08-22_12h15.27.876,EXNAT_3_fMRI_Psychopy2023.1.3,2023.1.3,75.01026532466325,
,,,,0,0,0,0,,,,,,,,,,,,,,,,,,,,,,,,,,OA01,001,no,1500,2000,150,250,500,2024-08-22_12h15.27.876,EXNAT_3_fMRI_Psychopy2023.1.3,2023.1.3,75.01026532466325,
,,,,1,0,1,0,,,,,,,#D292F3,190.46409797668457,151.5344569683075,False,NA,correct rejection,None,1500.0,1,4,2,2,1back_single_main_no_click,1,,,,,,OA01,001,no,1500,2000,150,250,500,2024-08-22_12h15.27.876,EXNAT_3_fMRI_Psychopy2023.1.3,2023.1.3,75.01026532466325,
,,,,1,0,1,0,,,,,,,#88BA3F,192.18365597724915,153.25401496887207,False,NA,correct rejection,None,1500.0,2,4,2,2,1back_single_main_no_click,1,,,,,,OA01,001,no,1500,2000,150,250,500,2024-08-22_12h15.27.876,EXNAT_3_fMRI_Psychopy2023.1.3,2023.1.3,75.01026532466325,
,,,,1,0,1,0,,,,,,,#2AB7EF,193.90314507484436,154.97350406646729,False,NA,correct rejection,None,1500.0,3,4,2,2,1back_single_main_no_click,1,,,,,,OA01,001,no,1500,2000,150,250,500,2024-08-22_12h15.27.876,EXNAT_3_fMRI_Psychopy2023.1.3,2023.1.3,75.01026532466325,
,,,,1,0,1,0,,,,,,,#F989A2,195.62245798110962,156.69281697273254,False,NA,correct rejection,None,1500.0,4,4,2,2,1back_single_main_no_click,1,,,,,,OA01,001,no,1500,2000,150,250,500,2024-08-22_12h15.27.876,EXNAT_3_fMRI_Psychopy2023.1.3,2023.1.3,75.01026532466325,
,,,,1,0,1,0,,,,,,,#F989A2,197.34186100959778,158.4122200012207,True,1,hit,639.5671367645264,1500.0,5,4,2,2,1back_single_main_no_click,1,,,,,,OA01,001,no,1500,2000,150,250,500,2024-08-22_12h15.27.876,EXNAT_3_fMRI_Psychopy2023.1.3,2023.1.3,75.01026532466325,
,,,,1,0,1,0,,,,,,,#2AB7EF,199.0612690448761,160.13162803649902,False,NA,correct rejection,None,1500.0,6,4,2,2,1back_single_main_no_click,1,,,,,,OA01,001,no,1500,2000,150,250,500,2024-08-22_12h15.27.876,EXNAT_3_fMRI_Psychopy2023.1.3,2023.1.3,75.01026532466325,
,,,,1,0,1,0,,,,,,,#88BA3F,200.78063011169434,161.85098910331726,False,NA,correct rejection,None,1500.0,7,4,2,2,1back_single_main_no_click,1,,,,,,OA01,001,no,1500,2000,150,250,500,2024-08-22_12h15.27.876,EXNAT_3_fMRI_Psychopy2023.1.3,2023.1.3,75.01026532466325,
,,,,1,0,1,0,,,,,,,#88BA3F,202.500009059906,163.57036805152893,True,1,hit,1132.6680183410645,1500.0,8,4,2,2,1back_single_main_no_click,1,,,,,,OA01,001,no,1500,2000,150,250,500,2024-08-22_12h15.27.876,EXNAT_3_fMRI_Psychopy2023.1.3,2023.1.3,75.01026532466325,
,,,,1,0,1,0,,,,,,,#D292F3,204.21968603134155,165.29004502296448,False,NA,correct rejection,None,1500.0,9,4,2,2,1back_single_main_no_click,1,,,,,,OA01,001,no,1500,2000,150,250,500,2024-08-22_12h15.27.876,EXNAT_3_fMRI_Psychopy2023.1.3,2023.1.3,75.01026532466325,
,,,,1,0,1,0,,,,,,,#F989A2,205.93883109092712,167.00919008255005,False,NA,correct rejection,None,1500.0,10,4,2,2,1back_single_main_no_click,1,,,,,,OA01,001,no,1500,2000,150,250,500,2024-08-22_12h15.27.876,EXNAT_3_fMRI_Psychopy2023.1.3,2023.1.3,75.01026532466325,
,,,,1,0,1,0,,,,,,,#2AB7EF,207.65819311141968,168.7285521030426,False,NA,correct rejection,None,1500.0,11,4,2,2,1back_single_main_no_click,1,,,,,,OA01,001,no,1500,2000,150,250,500,2024-08-22_12h15.27.876,EXNAT_3_fMRI_Psychopy2023.1.3,2023.1.3,75.01026532466325,
,,,,1,0,1,0,,,,,,,#D292F3,209.37759494781494,170.44795393943787,False,NA,correct rejection,None,1500.0,12,4,2,2,1back_single_main_no_click,1,,,,,,OA01,001,no,1500,2000,150,250,500,2024-08-22_12h15.27.876,EXNAT_3_fMRI_Psychopy2023.1.3,2023.1.3,75.01026532466325,
,,,,1,0,1,0,,,,,,,#88BA3F,211.09699201583862,172.16735100746155,False,NA,correct rejection,None,1500.0,13,4,2,2,1back_single_main_no_click,1,,,,,,OA01,001,no,1500,2000,150,250,500,2024-08-22_12h15.27.876,EXNAT_3_fMRI_Psychopy2023.1.3,2023.1.3,75.01026532466325,
,,,,1,0,1,0,,,,,,,#88BA3F,212.81638097763062,173.88673996925354,True,1,hit,452.9709815979004,1500.0,14,4,2,2,1back_single_main_no_click,1,,,,,,OA01,001,no,1500,2000,150,250,500,2024-08-22_12h15.27.876,EXNAT_3_fMRI_Psychopy2023.1.3,2023.1.3,75.01026532466325,
,,,,1,0,1,0,,,,,,,#88BA3F,214.53577208518982,175.60613107681274,True,1,hit,732.8200340270996,1500.0,15,4,2,2,1back_single_main_no_click,1,,,,,,OA01,001,no,1500,2000,150,250,500,2024-08-22_12h15.27.876,EXNAT_3_fMRI_Psychopy2023.1.3,2023.1.3,75.01026532466325,
,,,,1,0,1,0,,,,,,,#2AB7EF,216.25518012046814,177.32553911209106,False,NA,correct rejection,None,1500.0,16,4,2,2,1back_single_main_no_click,1,,,,,,OA01,001,no,1500,2000,150,250,500,2024-08-22_12h15.27.876,EXNAT_3_fMRI_Psychopy2023.1.3,2023.1.3,75.01026532466325,
,,,,1,0,1,0,,,,,,,#D292F3,217.9743320941925,179.04469108581543,False,NA,correct rejection,None,1500.0,17,4,2,2,1back_single_main_no_click,1,,,,,,OA01,001,no,1500,2000,150,250,500,2024-08-22_12h15.27.876,EXNAT_3_fMRI_Psychopy2023.1.3,2023.1.3,75.01026532466325,
,,,,1,0,1,0,,,,,,,#F989A2,219.6937279701233,180.76408696174622,False,NA,correct rejection,None,1500.0,18,4,2,2,1back_single_main_no_click,1,,,,,,OA01,001,no,1500,2000,150,250,500,2024-08-22_12h15.27.876,EXNAT_3_fMRI_Psychopy2023.1.3,2023.1.3,75.01026532466325,
,,,,1,0,1,0,,,,,,,#2AB7EF,221.41328597068787,182.4836449623108,False,1,false alarm,906.0490131378174,1500.0,19,4,2,2,1back_single_main_no_click,1,,,,,,OA01,001,no,1500,2000,150,250,500,2024-08-22_12h15.27.876,EXNAT_3_fMRI_Psychopy2023.1.3,2023.1.3,75.01026532466325,
,,,,1,0,1,0,,,,,,,#F989A2,223.1325180530548,184.20287704467773,False,NA,correct rejection,None,1500.0,20,4,2,2,1back_single_main_no_click,1,,,,,,OA01,001,no,1500,2000,150,250,500,2024-08-22_12h15.27.876,EXNAT_3_fMRI_Psychopy2023.1.3,2023.1.3,75.01026532466325,
,,,,1,0,1,0,,,,,,,#2AB7EF,224.85193514823914,185.92229413986206,False,NA,correct rejection,None,1500.0,21,4,2,2,1back_single_main_no_click,1,,,,,,OA01,001,no,1500,2000,150,250,500,2024-08-22_12h15.27.876,EXNAT_3_fMRI_Psychopy2023.1.3,2023.1.3,75.01026532466325,
,,,,1,0,1,0,,,,,,,#D292F3,226.57178807258606,187.64214706420898,False,NA,correct rejection,None,1500.0,22,4,2,2,1back_single_main_no_click,1,,,,,,OA01,001,no,1500,2000,150,250,500,2024-08-22_12h15.27.876,EXNAT_3_fMRI_Psychopy2023.1.3,2023.1.3,75.01026532466325,
,,,,1,0,1,0,,,,,,,#D292F3,228.29070615768433,189.36106514930725,True,1,hit,719.5999622344971,1500.0,23,4,2,2,1back_single_main_no_click,1,,,,,,OA01,001,no,1500,2000,150,250,500,2024-08-22_12h15.27.876,EXNAT_3_fMRI_Psychopy2023.1.3,2023.1.3,75.01026532466325,
,,,,1,0,1,0,,,,,,,#F989A2,230.01008009910583,191.08043909072876,False,NA,correct rejection,None,1500.0,24,4,2,2,1back_single_main_no_click,1,,,,,,OA01,001,no,1500,2000,150,250,500,2024-08-22_12h15.27.876,EXNAT_3_fMRI_Psychopy2023.1.3,2023.1.3,75.01026532466325,
,,,,1,0,1,0,,,,,,,#F989A2,231.72947001457214,192.79982900619507,True,1,hit,586.3571166992188,1500.0,25,4,2,2,1back_single_main_no_click,1,,,,,,OA01,001,no,1500,2000,150,250,500,2024-08-22_12h15.27.876,EXNAT_3_fMRI_Psychopy2023.1.3,2023.1.3,75.01026532466325,
,,,,1,0,1,0,,,,,,,#F989A2,233.448881149292,194.51924014091492,True,NA,miss,None,1500.0,26,4,2,2,1back_single_main_no_click,1,,,,,,OA01,001,no,1500,2000,150,250,500,2024-08-22_12h15.27.876,EXNAT_3_fMRI_Psychopy2023.1.3,2023.1.3,75.01026532466325,
,,,,1,0,1,0,,,,,,,#2AB7EF,235.16831016540527,196.2386691570282,False,NA,correct rejection,None,1500.0,27,4,2,2,1back_single_main_no_click,1,,,,,,OA01,001,no,1500,2000,150,250,500,2024-08-22_12h15.27.876,EXNAT_3_fMRI_Psychopy2023.1.3,2023.1.3,75.01026532466325,
,,,,1,0,1,0,,,,,,,#D292F3,236.88769793510437,197.9580569267273,False,NA,correct rejection,None,1500.0,28,4,2,2,1back_single_main_no_click,1,,,,,,OA01,001,no,1500,2000,150,250,500,2024-08-22_12h15.27.876,EXNAT_3_fMRI_Psychopy2023.1.3,2023.1.3,75.01026532466325,
,,,,1,0,1,0,,,,,,,#88BA3F,238.60704708099365,199.67740607261658,False,NA,correct rejection,None,1500.0,29,4,2,2,1back_single_main_no_click,1,,,,,,OA01,001,no,1500,2000,150,250,500,2024-08-22_12h15.27.876,EXNAT_3_fMRI_Psychopy2023.1.3,2023.1.3,75.01026532466325,
,,,,1,0,1,0,,,,,,,#88BA3F,240.32643604278564,201.39679503440857,True,1,hit,479.65002059936523,1500.0,30,4,2,2,1back_single_main_no_click,1,,,,,,OA01,001,no,1500,2000,150,250,500,2024-08-22_12h15.27.876,EXNAT_3_fMRI_Psychopy2023.1.3,2023.1.3,75.01026532466325,
,,,,1,0,1,0,,,,,,,#2AB7EF,242.04583311080933,203.11619210243225,False,NA,correct rejection,None,1500.0,31,4,2,2,1back_single_main_no_click,1,,,,,,OA01,001,no,1500,2000,150,250,500,2024-08-22_12h15.27.876,EXNAT_3_fMRI_Psychopy2023.1.3,2023.1.3,75.01026532466325,
,,,,1,0,1,0,,,,,,,#D292F3,243.7652280330658,204.83558702468872,False,NA,correct rejection,None,1500.0,32,4,2,2,1back_single_main_no_click,1,,,,,,OA01,001,no,1500,2000,150,250,500,2024-08-22_12h15.27.876,EXNAT_3_fMRI_Psychopy2023.1.3,2023.1.3,75.01026532466325,
,,,,1,0,1,0,,,,,,,#88BA3F,245.4846270084381,206.55498600006104,False,NA,correct rejection,None,1500.0,33,4,2,2,1back_single_main_no_click,1,,,,,,OA01,001,no,1500,2000,150,250,500,2024-08-22_12h15.27.876,EXNAT_3_fMRI_Psychopy2023.1.3,2023.1.3,75.01026532466325,
,,,,1,0,1,0,,,,,,,#D292F3,247.20402598381042,208.27438497543335,False,NA,correct rejection,None,1500.0,34,4,2,2,1back_single_main_no_click,1,,,,,,OA01,001,no,1500,2000,150,250,500,2024-08-22_12h15.27.876,EXNAT_3_fMRI_Psychopy2023.1.3,2023.1.3,75.01026532466325,
,,,,1,0,1,0,,,,,,,#2AB7EF,248.92348194122314,209.99384093284607,False,NA,correct rejection,None,1500.0,35,4,2,2,1back_single_main_no_click,1,,,,,,OA01,001,no,1500,2000,150,250,500,2024-08-22_12h15.27.876,EXNAT_3_fMRI_Psychopy2023.1.3,2023.1.3,75.01026532466325,
,,,,1,0,1,0,,,,,,,#88BA3F,250.64289593696594,211.71325492858887,False,NA,correct rejection,None,1500.0,36,4,2,2,1back_single_main_no_click,1,,,,,,OA01,001,no,1500,2000,150,250,500,2024-08-22_12h15.27.876,EXNAT_3_fMRI_Psychopy2023.1.3,2023.1.3,75.01026532466325,
,,,,1,0,1,0,,,,,,,#F989A2,252.36224913597107,213.432608127594,False,NA,correct rejection,None,1500.0,37,4,2,2,1back_single_main_no_click,1,,,,,,OA01,001,no,1500,2000,150,250,500,2024-08-22_12h15.27.876,EXNAT_3_fMRI_Psychopy2023.1.3,2023.1.3,75.01026532466325,
,,,,1,0,1,0,,,,,,,#F989A2,254.08165097236633,215.15200996398926,True,1,hit,572.9320049285889,1500.0,38,4,2,2,1back_single_main_no_click,1,,,,,,OA01,001,no,1500,2000,150,250,500,2024-08-22_12h15.27.876,EXNAT_3_fMRI_Psychopy2023.1.3,2023.1.3,75.01026532466325,
,,,,1,0,1,0,,,,,,,#D292F3,255.8010129928589,216.8713719844818,False,NA,correct rejection,None,1500.0,39,4,2,2,1back_single_main_no_click,1,,,,,,OA01,001,no,1500,2000,150,250,500,2024-08-22_12h15.27.876,EXNAT_3_fMRI_Psychopy2023.1.3,2023.1.3,75.01026532466325,
,,,,1,0,1,0,,,,,,,#2AB7EF,257.5204141139984,218.59077310562134,False,NA,correct rejection,None,1500.0,40,4,2,2,1back_single_main_no_click,1,,,,,,OA01,001,no,1500,2000,150,250,500,2024-08-22_12h15.27.876,EXNAT_3_fMRI_Psychopy2023.1.3,2023.1.3,75.01026532466325,
,,,,1,0,1,0,,,,,,,#88BA3F,259.23982095718384,220.31017994880676,False,NA,correct rejection,None,1500.0,41,4,2,2,1back_single_main_no_click,1,,,,,,OA01,001,no,1500,2000,150,250,500,2024-08-22_12h15.27.876,EXNAT_3_fMRI_Psychopy2023.1.3,2023.1.3,75.01026532466325,
,,,,1,0,1,0,,,,,,,#2AB7EF,260.95918798446655,222.02954697608948,False,NA,correct rejection,None,1500.0,42,4,2,2,1back_single_main_no_click,1,,,,,,OA01,001,no,1500,2000,150,250,500,2024-08-22_12h15.27.876,EXNAT_3_fMRI_Psychopy2023.1.3,2023.1.3,75.01026532466325,
,,,,1,0,1,0,,,,,,,#F989A2,262.67857599258423,223.74893498420715,False,NA,correct rejection,None,1500.0,43,4,2,2,1back_single_main_no_click,1,,,,,,OA01,001,no,1500,2000,150,250,500,2024-08-22_12h15.27.876,EXNAT_3_fMRI_Psychopy2023.1.3,2023.1.3,75.01026532466325,
,,,,1,0,1,0,,,,,,,#D292F3,264.39797496795654,225.46833395957947,False,NA,correct rejection,None,1500.0,44,4,2,2,1back_single_main_no_click,1,,,,,,OA01,001,no,1500,2000,150,250,500,2024-08-22_12h15.27.876,EXNAT_3_fMRI_Psychopy2023.1.3,2023.1.3,75.01026532466325,
,,,,1,0,1,0,,,,,,,#2AB7EF,266.1173641681671,227.18772315979004,False,NA,correct rejection,None,1500.0,45,4,2,2,1back_single_main_no_click,1,,,,,,OA01,001,no,1500,2000,150,250,500,2024-08-22_12h15.27.876,EXNAT_3_fMRI_Psychopy2023.1.3,2023.1.3,75.01026532466325,
,,,,1,0,1,0,,,,,,,#88BA3F,267.83674716949463,228.90710616111755,False,NA,correct rejection,None,1500.0,46,4,2,2,1back_single_main_no_click,1,,,,,,OA01,001,no,1500,2000,150,250,500,2024-08-22_12h15.27.876,EXNAT_3_fMRI_Psychopy2023.1.3,2023.1.3,75.01026532466325,
,,,,1,0,1,0,,,,,,,#D292F3,269.55615496635437,230.6265139579773,False,NA,correct rejection,None,1500.0,47,4,2,2,1back_single_main_no_click,1,,,,,,OA01,001,no,1500,2000,150,250,500,2024-08-22_12h15.27.876,EXNAT_3_fMRI_Psychopy2023.1.3,2023.1.3,75.01026532466325,
,,,,1,0,1,0,,,,,,,#88BA3F,271.27556109428406,232.34592008590698,False,NA,correct rejection,None,1500.0,48,4,2,2,1back_single_main_no_click,1,,,,,,OA01,001,no,1500,2000,150,250,500,2024-08-22_12h15.27.876,EXNAT_3_fMRI_Psychopy2023.1.3,2023.1.3,75.01026532466325,
,,,,1,0,1,0,,,,,,,#2AB7EF,272.9949460029602,234.06530499458313,False,NA,correct rejection,None,1500.0,49,4,2,2,1back_single_main_no_click,1,,,,,,OA01,001,no,1500,2000,150,250,500,2024-08-22_12h15.27.876,EXNAT_3_fMRI_Psychopy2023.1.3,2023.1.3,75.01026532466325,
,,,,1,0,1,0,,,,,,,#88BA3F,274.7143340110779,235.7846930027008,False,NA,correct rejection,None,1500.0,50,4,2,2,1back_single_main_no_click,1,,,,,,OA01,001,no,1500,2000,150,250,500,2024-08-22_12h15.27.876,EXNAT_3_fMRI_Psychopy2023.1.3,2023.1.3,75.01026532466325,
,,,,1,0,1,0,,,,,,,#2AB7EF,276.4337649345398,237.50412392616272,False,NA,correct rejection,None,1500.0,51,4,2,2,1back_single_main_no_click,1,,,,,,OA01,001,no,1500,2000,150,250,500,2024-08-22_12h15.27.876,EXNAT_3_fMRI_Psychopy2023.1.3,2023.1.3,75.01026532466325,
,,,,1,0,1,0,,,,,,,#F989A2,278.1531491279602,239.22350811958313,False,NA,correct rejection,None,1500.0,52,4,2,2,1back_single_main_no_click,1,,,,,,OA01,001,no,1500,2000,150,250,500,2024-08-22_12h15.27.876,EXNAT_3_fMRI_Psychopy2023.1.3,2023.1.3,75.01026532466325,
,,,,1,0,1,0,,,,,,,#88BA3F,279.8725230693817,240.94288206100464,False,NA,correct rejection,None,1500.0,53,4,2,2,1back_single_main_no_click,1,,,,,,OA01,001,no,1500,2000,150,250,500,2024-08-22_12h15.27.876,EXNAT_3_fMRI_Psychopy2023.1.3,2023.1.3,75.01026532466325,
,,,,1,0,1,0,,,,,,,#F989A2,281.59193301200867,242.6622920036316,False,NA,correct rejection,None,1500.0,54,4,2,2,1back_single_main_no_click,1,,,,,,OA01,001,no,1500,2000,150,250,500,2024-08-22_12h15.27.876,EXNAT_3_fMRI_Psychopy2023.1.3,2023.1.3,75.01026532466325,
,,,,1,0,1,0,,,,,,,#88BA3F,283.31133008003235,244.38168907165527,False,NA,correct rejection,None,1500.0,55,4,2,2,1back_single_main_no_click,1,,,,,,OA01,001,no,1500,2000,150,250,500,2024-08-22_12h15.27.876,EXNAT_3_fMRI_Psychopy2023.1.3,2023.1.3,75.01026532466325,
,,,,1,0,1,0,,,,,,,#D292F3,285.030730009079,246.1010890007019,False,NA,correct rejection,None,1500.0,56,4,2,2,1back_single_main_no_click,1,,,,,,OA01,001,no,1500,2000,150,250,500,2024-08-22_12h15.27.876,EXNAT_3_fMRI_Psychopy2023.1.3,2023.1.3,75.01026532466325,
,,,,1,0,1,0,,,,,,,#2AB7EF,286.7501151561737,247.82047414779663,False,NA,correct rejection,None,1500.0,57,4,2,2,1back_single_main_no_click,1,,,,,,OA01,001,no,1500,2000,150,250,500,2024-08-22_12h15.27.876,EXNAT_3_fMRI_Psychopy2023.1.3,2023.1.3,75.01026532466325,
,,,,1,0,1,0,,,,,,,#F989A2,288.46948313713074,249.53984212875366,False,NA,correct rejection,None,1500.0,58,4,2,2,1back_single_main_no_click,1,,,,,,OA01,001,no,1500,2000,150,250,500,2024-08-22_12h15.27.876,EXNAT_3_fMRI_Psychopy2023.1.3,2023.1.3,75.01026532466325,
,,,,1,0,1,0,,,,,,,#D292F3,290.1888999938965,251.2592589855194,False,NA,correct rejection,None,1500.0,59,4,2,2,1back_single_main_no_click,1,,,,,,OA01,001,no,1500,2000,150,250,500,2024-08-22_12h15.27.876,EXNAT_3_fMRI_Psychopy2023.1.3,2023.1.3,75.01026532466325,
,,,,1,0,1,0,,,,,,,#D292F3,291.9082889556885,252.9786479473114,True,1,hit,1079.423189163208,1500.0,60,4,2,2,1back_single_main_no_click,1,,,,,,OA01,001,no,1500,2000,150,250,500,2024-08-22_12h15.27.876,EXNAT_3_fMRI_Psychopy2023.1.3,2023.1.3,75.01026532466325,
,,,,1,0,1,0,,,,,,,,,,,,,,,,,,,,,,,,,,OA01,001,no,1500,2000,150,250,500,2024-08-22_12h15.27.876,EXNAT_3_fMRI_Psychopy2023.1.3,2023.1.3,75.01026532466325,
,,,,2,0,2,0,,,,,,,#F989A2,302.624587059021,263.6949460506439,False,NA,correct rejection,None,2000.0,1,5,2,3,2back_single_main_no_click,2,,,,,,OA01,001,no,1500,2000,150,250,500,2024-08-22_12h15.27.876,EXNAT_3_fMRI_Psychopy2023.1.3,2023.1.3,75.01026532466325,
,,,,2,0,2,0,,,,,,,#88BA3F,304.8505930900574,265.9209520816803,False,NA,correct rejection,None,2000.0,2,5,2,3,2back_single_main_no_click,2,,,,,,OA01,001,no,1500,2000,150,250,500,2024-08-22_12h15.27.876,EXNAT_3_fMRI_Psychopy2023.1.3,2023.1.3,75.01026532466325,
,,,,2,0,2,0,,,,,,,#F989A2,307.0764720439911,268.146831035614,True,1,hit,826.1351585388184,2000.0,3,5,2,3,2back_single_main_no_click,2,,,,,,OA01,001,no,1500,2000,150,250,500,2024-08-22_12h15.27.876,EXNAT_3_fMRI_Psychopy2023.1.3,2023.1.3,75.01026532466325,
,,,,2,0,2,0,,,,,,,#88BA3F,309.3023581504822,270.3727171421051,True,NA,miss,None,2000.0,4,5,2,3,2back_single_main_no_click,2,,,,,,OA01,001,no,1500,2000,150,250,500,2024-08-22_12h15.27.876,EXNAT_3_fMRI_Psychopy2023.1.3,2023.1.3,75.01026532466325,
,,,,2,0,2,0,,,,,,,#D292F3,311.52823209762573,272.59859108924866,False,NA,correct rejection,None,2000.0,5,5,2,3,2back_single_main_no_click,2,,,,,,OA01,001,no,1500,2000,150,250,500,2024-08-22_12h15.27.876,EXNAT_3_fMRI_Psychopy2023.1.3,2023.1.3,75.01026532466325,
,,,,2,0,2,0,,,,,,,#2AB7EF,313.75412797927856,274.8244869709015,False,NA,correct rejection,None,2000.0,6,5,2,3,2back_single_main_no_click,2,,,,,,OA01,001,no,1500,2000,150,250,500,2024-08-22_12h15.27.876,EXNAT_3_fMRI_Psychopy2023.1.3,2023.1.3,75.01026532466325,
,,,,2,0,2,0,,,,,,,#F989A2,315.9800081253052,277.0503671169281,False,NA,correct rejection,None,2000.0,7,5,2,3,2back_single_main_no_click,2,,,,,,OA01,001,no,1500,2000,150,250,500,2024-08-22_12h15.27.876,EXNAT_3_fMRI_Psychopy2023.1.3,2023.1.3,75.01026532466325,
,,,,2,0,2,0,,,,,,,#2AB7EF,318.20590806007385,279.2762670516968,True,NA,miss,None,2000.0,8,5,2,3,2back_single_main_no_click,2,,,,,,OA01,001,no,1500,2000,150,250,500,2024-08-22_12h15.27.876,EXNAT_3_fMRI_Psychopy2023.1.3,2023.1.3,75.01026532466325,
,,,,2,0,2,0,,,,,,,#D292F3,320.4298930168152,281.5002520084381,False,NA,correct rejection,None,2000.0,9,5,2,3,2back_single_main_no_click,2,,,,,,OA01,001,no,1500,2000,150,250,500,2024-08-22_12h15.27.876,EXNAT_3_fMRI_Psychopy2023.1.3,2023.1.3,75.01026532466325,
,,,,2,0,2,0,,,,,,,#88BA3F,322.65586614608765,283.72622513771057,False,NA,correct rejection,None,2000.0,10,5,2,3,2back_single_main_no_click,2,,,,,,OA01,001,no,1500,2000,150,250,500,2024-08-22_12h15.27.876,EXNAT_3_fMRI_Psychopy2023.1.3,2023.1.3,75.01026532466325,
,,,,2,0,2,0,,,,,,,#2AB7EF,324.88167214393616,285.9520311355591,False,NA,correct rejection,None,2000.0,11,5,2,3,2back_single_main_no_click,2,,,,,,OA01,001,no,1500,2000,150,250,500,2024-08-22_12h15.27.876,EXNAT_3_fMRI_Psychopy2023.1.3,2023.1.3,75.01026532466325,
,,,,2,0,2,0,,,,,,,#D292F3,327.10759806632996,288.1779570579529,False,NA,correct rejection,None,2000.0,12,5,2,3,2back_single_main_no_click,2,,,,,,OA01,001,no,1500,2000,150,250,500,2024-08-22_12h15.27.876,EXNAT_3_fMRI_Psychopy2023.1.3,2023.1.3,75.01026532466325,
,,,,2,0,2,0,,,,,,,#D292F3,329.3334810733795,290.40384006500244,False,1,false alarm,452.9869556427002,2000.0,13,5,2,3,2back_single_main_no_click,2,,,,,,OA01,001,no,1500,2000,150,250,500,2024-08-22_12h15.27.876,EXNAT_3_fMRI_Psychopy2023.1.3,2023.1.3,75.01026532466325,
,,,,2,0,2,0,,,,,,,#D292F3,331.5593249797821,292.62968397140503,True,1,hit,746.391773223877,2000.0,14,5,2,3,2back_single_main_no_click,2,,,,,,OA01,001,no,1500,2000,150,250,500,2024-08-22_12h15.27.876,EXNAT_3_fMRI_Psychopy2023.1.3,2023.1.3,75.01026532466325,
,,,,2,0,2,0,,,,,,,#2AB7EF,333.7851941585541,294.855553150177,False,NA,correct rejection,None,2000.0,15,5,2,3,2back_single_main_no_click,2,,,,,,OA01,001,no,1500,2000,150,250,500,2024-08-22_12h15.27.876,EXNAT_3_fMRI_Psychopy2023.1.3,2023.1.3,75.01026532466325,
,,,,2,0,2,0,,,,,,,#2AB7EF,336.0110659599304,297.08142495155334,False,NA,correct rejection,None,2000.0,16,5,2,3,2back_single_main_no_click,2,,,,,,OA01,001,no,1500,2000,150,250,500,2024-08-22_12h15.27.876,EXNAT_3_fMRI_Psychopy2023.1.3,2023.1.3,75.01026532466325,
,,,,2,0,2,0,,,,,,,#F989A2,338.2369420528412,299.3073010444641,False,NA,correct rejection,None,2000.0,17,5,2,3,2back_single_main_no_click,2,,,,,,OA01,001,no,1500,2000,150,250,500,2024-08-22_12h15.27.876,EXNAT_3_fMRI_Psychopy2023.1.3,2023.1.3,75.01026532466325,
,,,,2,0,2,0,,,,,,,#88BA3F,340.4629330635071,301.53329205513,False,NA,correct rejection,None,2000.0,18,5,2,3,2back_single_main_no_click,2,,,,,,OA01,001,no,1500,2000,150,250,500,2024-08-22_12h15.27.876,EXNAT_3_fMRI_Psychopy2023.1.3,2023.1.3,75.01026532466325,
,,,,2,0,2,0,,,,,,,#88BA3F,342.68879413604736,303.7591531276703,False,NA,correct rejection,None,2000.0,19,5,2,3,2back_single_main_no_click,2,,,,,,OA01,001,no,1500,2000,150,250,500,2024-08-22_12h15.27.876,EXNAT_3_fMRI_Psychopy2023.1.3,2023.1.3,75.01026532466325,
,,,,2,0,2,0,,,,,,,#F989A2,344.914705991745,305.9850649833679,False,NA,correct rejection,None,2000.0,20,5,2,3,2back_single_main_no_click,2,,,,,,OA01,001,no,1500,2000,150,250,500,2024-08-22_12h15.27.876,EXNAT_3_fMRI_Psychopy2023.1.3,2023.1.3,75.01026532466325,
,,,,2,0,2,0,,,,,,,#F989A2,347.1410231590271,308.21138215065,False,NA,correct rejection,None,2000.0,21,5,2,3,2back_single_main_no_click,2,,,,,,OA01,001,no,1500,2000,150,250,500,2024-08-22_12h15.27.876,EXNAT_3_fMRI_Psychopy2023.1.3,2023.1.3,75.01026532466325,
,,,,2,0,2,0,,,,,,,#88BA3F,349.366868019104,310.43722701072693,False,NA,correct rejection,None,2000.0,22,5,2,3,2back_single_main_no_click,2,,,,,,OA01,001,no,1500,2000,150,250,500,2024-08-22_12h15.27.876,EXNAT_3_fMRI_Psychopy2023.1.3,2023.1.3,75.01026532466325,
,,,,2,0,2,0,,,,,,,#2AB7EF,351.58078598976135,312.6511449813843,False,NA,correct rejection,None,2000.0,23,5,2,3,2back_single_main_no_click,2,,,,,,OA01,001,no,1500,2000,150,250,500,2024-08-22_12h15.27.876,EXNAT_3_fMRI_Psychopy2023.1.3,2023.1.3,75.01026532466325,
,,,,2,0,2,0,,,,,,,#D292F3,353.8066990375519,314.8770580291748,False,NA,correct rejection,None,2000.0,24,5,2,3,2back_single_main_no_click,2,,,,,,OA01,001,no,1500,2000,150,250,500,2024-08-22_12h15.27.876,EXNAT_3_fMRI_Psychopy2023.1.3,2023.1.3,75.01026532466325,
,,,,2,0,2,0,,,,,,,#F989A2,356.0325491428375,317.10290813446045,False,NA,correct rejection,None,2000.0,25,5,2,3,2back_single_main_no_click,2,,,,,,OA01,001,no,1500,2000,150,250,500,2024-08-22_12h15.27.876,EXNAT_3_fMRI_Psychopy2023.1.3,2023.1.3,75.01026532466325,
,,,,2,0,2,0,,,,,,,#88BA3F,358.2584590911865,319.32881808280945,False,NA,correct rejection,None,2000.0,26,5,2,3,2back_single_main_no_click,2,,,,,,OA01,001,no,1500,2000,150,250,500,2024-08-22_12h15.27.876,EXNAT_3_fMRI_Psychopy2023.1.3,2023.1.3,75.01026532466325,
,,,,2,0,2,0,,,,,,,#2AB7EF,360.4843530654907,321.55471205711365,False,NA,correct rejection,None,2000.0,27,5,2,3,2back_single_main_no_click,2,,,,,,OA01,001,no,1500,2000,150,250,500,2024-08-22_12h15.27.876,EXNAT_3_fMRI_Psychopy2023.1.3,2023.1.3,75.01026532466325,
,,,,2,0,2,0,,,,,,,#2AB7EF,362.71018505096436,323.7805440425873,False,NA,correct rejection,None,2000.0,28,5,2,3,2back_single_main_no_click,2,,,,,,OA01,001,no,1500,2000,150,250,500,2024-08-22_12h15.27.876,EXNAT_3_fMRI_Psychopy2023.1.3,2023.1.3,75.01026532466325,
,,,,2,0,2,0,,,,,,,#88BA3F,364.94873809814453,326.01909708976746,False,NA,correct rejection,None,2000.0,29,5,2,3,2back_single_main_no_click,2,,,,,,OA01,001,no,1500,2000,150,250,500,2024-08-22_12h15.27.876,EXNAT_3_fMRI_Psychopy2023.1.3,2023.1.3,75.01026532466325,
,,,,2,0,2,0,,,,,,,#88BA3F,367.1752710342407,328.24563002586365,False,NA,correct rejection,None,2000.0,30,5,2,3,2back_single_main_no_click,2,,,,,,OA01,001,no,1500,2000,150,250,500,2024-08-22_12h15.27.876,EXNAT_3_fMRI_Psychopy2023.1.3,2023.1.3,75.01026532466325,
,,,,2,0,2,0,,,,,,,#2AB7EF,369.4011709690094,330.4715299606323,False,1,false alarm,906.1508178710938,2000.0,31,5,2,3,2back_single_main_no_click,2,,,,,,OA01,001,no,1500,2000,150,250,500,2024-08-22_12h15.27.876,EXNAT_3_fMRI_Psychopy2023.1.3,2023.1.3,75.01026532466325,
,,,,2,0,2,0,,,,,,,#F989A2,371.62706208229065,332.6974210739136,False,NA,correct rejection,None,2000.0,32,5,2,3,2back_single_main_no_click,2,,,,,,OA01,001,no,1500,2000,150,250,500,2024-08-22_12h15.27.876,EXNAT_3_fMRI_Psychopy2023.1.3,2023.1.3,75.01026532466325,
,,,,2,0,2,0,,,,,,,#D292F3,373.8529350757599,334.9232940673828,False,NA,correct rejection,None,2000.0,33,5,2,3,2back_single_main_no_click,2,,,,,,OA01,001,no,1500,2000,150,250,500,2024-08-22_12h15.27.876,EXNAT_3_fMRI_Psychopy2023.1.3,2023.1.3,75.01026532466325,
,,,,2,0,2,0,,,,,,,#D292F3,376.0788221359253,337.1491811275482,False,NA,correct rejection,None,2000.0,34,5,2,3,2back_single_main_no_click,2,,,,,,OA01,001,no,1500,2000,150,250,500,2024-08-22_12h15.27.876,EXNAT_3_fMRI_Psychopy2023.1.3,2023.1.3,75.01026532466325,
,,,,2,0,2,0,,,,,,,#F989A2,378.30468797683716,339.3750469684601,False,NA,correct rejection,None,2000.0,35,5,2,3,2back_single_main_no_click,2,,,,,,OA01,001,no,1500,2000,150,250,500,2024-08-22_12h15.27.876,EXNAT_3_fMRI_Psychopy2023.1.3,2023.1.3,75.01026532466325,
,,,,2,0,2,0,,,,,,,#D292F3,380.5305790901184,341.60093808174133,True,NA,miss,None,2000.0,36,5,2,3,2back_single_main_no_click,2,,,,,,OA01,001,no,1500,2000,150,250,500,2024-08-22_12h15.27.876,EXNAT_3_fMRI_Psychopy2023.1.3,2023.1.3,75.01026532466325,
,,,,2,0,2,0,,,,,,,#F989A2,382.7564580440521,343.82681703567505,True,1,hit,1025.9370803833008,2000.0,37,5,2,3,2back_single_main_no_click,2,,,,,,OA01,001,no,1500,2000,150,250,500,2024-08-22_12h15.27.876,EXNAT_3_fMRI_Psychopy2023.1.3,2023.1.3,75.01026532466325,
,,,,2,0,2,0,,,,,,,#2AB7EF,384.98235416412354,346.05271315574646,False,NA,correct rejection,None,2000.0,38,5,2,3,2back_single_main_no_click,2,,,,,,OA01,001,no,1500,2000,150,250,500,2024-08-22_12h15.27.876,EXNAT_3_fMRI_Psychopy2023.1.3,2023.1.3,75.01026532466325,
,,,,2,0,2,0,,,,,,,#2AB7EF,387.20822310447693,348.27858209609985,False,NA,correct rejection,None,2000.0,39,5,2,3,2back_single_main_no_click,2,,,,,,OA01,001,no,1500,2000,150,250,500,2024-08-22_12h15.27.876,EXNAT_3_fMRI_Psychopy2023.1.3,2023.1.3,75.01026532466325,
,,,,2,0,2,0,,,,,,,#88BA3F,389.4341080188751,350.50446701049805,False,NA,correct rejection,None,2000.0,40,5,2,3,2back_single_main_no_click,2,,,,,,OA01,001,no,1500,2000,150,250,500,2024-08-22_12h15.27.876,EXNAT_3_fMRI_Psychopy2023.1.3,2023.1.3,75.01026532466325,
,,,,2,0,2,0,,,,,,,#D292F3,391.65998697280884,352.73034596443176,False,NA,correct rejection,None,2000.0,41,5,2,3,2back_single_main_no_click,2,,,,,,OA01,001,no,1500,2000,150,250,500,2024-08-22_12h15.27.876,EXNAT_3_fMRI_Psychopy2023.1.3,2023.1.3,75.01026532466325,
,,,,2,0,2,0,,,,,,,#2AB7EF,393.8858971595764,354.95625615119934,False,NA,correct rejection,None,2000.0,42,5,2,3,2back_single_main_no_click,2,,,,,,OA01,001,no,1500,2000,150,250,500,2024-08-22_12h15.27.876,EXNAT_3_fMRI_Psychopy2023.1.3,2023.1.3,75.01026532466325,
,,,,2,0,2,0,,,,,,,#D292F3,396.1117570400238,357.18211603164673,True,NA,miss,None,2000.0,43,5,2,3,2back_single_main_no_click,2,,,,,,OA01,001,no,1500,2000,150,250,500,2024-08-22_12h15.27.876,EXNAT_3_fMRI_Psychopy2023.1.3,2023.1.3,75.01026532466325,
,,,,2,0,2,0,,,,,,,#D292F3,398.3376500606537,359.4080090522766,False,NA,correct rejection,None,2000.0,44,5,2,3,2back_single_main_no_click,2,,,,,,OA01,001,no,1500,2000,150,250,500,2024-08-22_12h15.27.876,EXNAT_3_fMRI_Psychopy2023.1.3,2023.1.3,75.01026532466325,
,,,,2,0,2,0,,,,,,,#F989A2,400.56361293792725,361.63397192955017,False,NA,correct rejection,None,2000.0,45,5,2,3,2back_single_main_no_click,2,,,,,,OA01,001,no,1500,2000,150,250,500,2024-08-22_12h15.27.876,EXNAT_3_fMRI_Psychopy2023.1.3,2023.1.3,75.01026532466325,
,,,,2,0,2,0,,,,,,,#D292F3,402.78945112228394,363.85981011390686,True,NA,miss,None,2000.0,46,5,2,3,2back_single_main_no_click,2,,,,,,OA01,001,no,1500,2000,150,250,500,2024-08-22_12h15.27.876,EXNAT_3_fMRI_Psychopy2023.1.3,2023.1.3,75.01026532466325,
,,,,2,0,2,0,,,,,,,#88BA3F,405.0150909423828,366.08544993400574,False,NA,correct rejection,None,2000.0,47,5,2,3,2back_single_main_no_click,2,,,,,,OA01,001,no,1500,2000,150,250,500,2024-08-22_12h15.27.876,EXNAT_3_fMRI_Psychopy2023.1.3,2023.1.3,75.01026532466325,
,,,,2,0,2,0,,,,,,,#88BA3F,407.24094915390015,368.31130814552307,False,NA,correct rejection,None,2000.0,48,5,2,3,2back_single_main_no_click,2,,,,,,OA01,001,no,1500,2000,150,250,500,2024-08-22_12h15.27.876,EXNAT_3_fMRI_Psychopy2023.1.3,2023.1.3,75.01026532466325,
,,,,2,0,2,0,,,,,,,#88BA3F,409.46685004234314,370.53720903396606,True,1,hit,493.06297302246094,2000.0,49,5,2,3,2back_single_main_no_click,2,,,,,,OA01,001,no,1500,2000,150,250,500,2024-08-22_12h15.27.876,EXNAT_3_fMRI_Psychopy2023.1.3,2023.1.3,75.01026532466325,
,,,,2,0,2,0,,,,,,,#2AB7EF,411.69275403022766,372.7631130218506,False,NA,correct rejection,None,2000.0,50,5,2,3,2back_single_main_no_click,2,,,,,,OA01,001,no,1500,2000,150,250,500,2024-08-22_12h15.27.876,EXNAT_3_fMRI_Psychopy2023.1.3,2023.1.3,75.01026532466325,
,,,,2,0,2,0,,,,,,,#D292F3,413.91862297058105,374.988981962204,False,NA,correct rejection,None,2000.0,51,5,2,3,2back_single_main_no_click,2,,,,,,OA01,001,no,1500,2000,150,250,500,2024-08-22_12h15.27.876,EXNAT_3_fMRI_Psychopy2023.1.3,2023.1.3,75.01026532466325,
,,,,2,0,2,0,,,,,,,#F989A2,416.144492149353,377.21485114097595,False,NA,correct rejection,None,2000.0,52,5,2,3,2back_single_main_no_click,2,,,,,,OA01,001,no,1500,2000,150,250,500,2024-08-22_12h15.27.876,EXNAT_3_fMRI_Psychopy2023.1.3,2023.1.3,75.01026532466325,
,,,,2,0,2,0,,,,,,,#88BA3F,418.3703820705414,379.4407410621643,False,NA,correct rejection,None,2000.0,53,5,2,3,2back_single_main_no_click,2,,,,,,OA01,001,no,1500,2000,150,250,500,2024-08-22_12h15.27.876,EXNAT_3_fMRI_Psychopy2023.1.3,2023.1.3,75.01026532466325,
,,,,2,0,2,0,,,,,,,#2AB7EF,420.5962669849396,381.6666259765625,False,NA,correct rejection,None,2000.0,54,5,2,3,2back_single_main_no_click,2,,,,,,OA01,001,no,1500,2000,150,250,500,2024-08-22_12h15.27.876,EXNAT_3_fMRI_Psychopy2023.1.3,2023.1.3,75.01026532466325,
,,,,2,0,2,0,,,,,,,#D292F3,422.8226490020752,383.8930079936981,False,NA,correct rejection,None,2000.0,55,5,2,3,2back_single_main_no_click,2,,,,,,OA01,001,no,1500,2000,150,250,500,2024-08-22_12h15.27.876,EXNAT_3_fMRI_Psychopy2023.1.3,2023.1.3,75.01026532466325,
,,,,2,0,2,0,,,,,,,#88BA3F,425.0480091571808,386.1183681488037,False,NA,correct rejection,None,2000.0,56,5,2,3,2back_single_main_no_click,2,,,,,,OA01,001,no,1500,2000,150,250,500,2024-08-22_12h15.27.876,EXNAT_3_fMRI_Psychopy2023.1.3,2023.1.3,75.01026532466325,
,,,,2,0,2,0,,,,,,,#D292F3,427.27391600608826,388.3442749977112,True,1,hit,866.1630153656006,2000.0,57,5,2,3,2back_single_main_no_click,2,,,,,,OA01,001,no,1500,2000,150,250,500,2024-08-22_12h15.27.876,EXNAT_3_fMRI_Psychopy2023.1.3,2023.1.3,75.01026532466325,
,,,,2,0,2,0,,,,,,,#F989A2,429.49977016448975,390.57012915611267,False,NA,correct rejection,None,2000.0,58,5,2,3,2back_single_main_no_click,2,,,,,,OA01,001,no,1500,2000,150,250,500,2024-08-22_12h15.27.876,EXNAT_3_fMRI_Psychopy2023.1.3,2023.1.3,75.01026532466325,
,,,,2,0,2,0,,,,,,,#F989A2,431.72608494758606,392.796443939209,False,NA,correct rejection,None,2000.0,59,5,2,3,2back_single_main_no_click,2,,,,,,OA01,001,no,1500,2000,150,250,500,2024-08-22_12h15.27.876,EXNAT_3_fMRI_Psychopy2023.1.3,2023.1.3,75.01026532466325,
,,,,2,0,2,0,,,,,,,#2AB7EF,433.9515480995178,395.02190709114075,False,NA,correct rejection,None,2000.0,60,5,2,3,2back_single_main_no_click,2,,,,,,OA01,001,no,1500,2000,150,250,500,2024-08-22_12h15.27.876,EXNAT_3_fMRI_Psychopy2023.1.3,2023.1.3,75.01026532466325,
,,,,2,0,2,0,,,,,,,,,,,,,,,,,,,,,,,,,,OA01,001,no,1500,2000,150,250,500,2024-08-22_12h15.27.876,EXNAT_3_fMRI_Psychopy2023.1.3,2023.1.3,75.01026532466325,
,,,,3,0,3,0,,,,,,,#F989A2,445.1609880924225,406.2313470840454,False,NA,correct rejection,None,1500.0,1,6,2,4,1back_single_main_no_click,1,,,,,,OA01,001,no,1500,2000,150,250,500,2024-08-22_12h15.27.876,EXNAT_3_fMRI_Psychopy2023.1.3,2023.1.3,75.01026532466325,
,,,,3,0,3,0,,,,,,,#D292F3,446.88055205345154,407.95091104507446,False,NA,correct rejection,None,1500.0,2,6,2,4,1back_single_main_no_click,1,,,,,,OA01,001,no,1500,2000,150,250,500,2024-08-22_12h15.27.876,EXNAT_3_fMRI_Psychopy2023.1.3,2023.1.3,75.01026532466325,
,,,,3,0,3,0,,,,,,,#88BA3F,448.5999870300293,409.6703460216522,False,NA,correct rejection,None,1500.0,3,6,2,4,1back_single_main_no_click,1,,,,,,OA01,001,no,1500,2000,150,250,500,2024-08-22_12h15.27.876,EXNAT_3_fMRI_Psychopy2023.1.3,2023.1.3,75.01026532466325,
,,,,3,0,3,0,,,,,,,#2AB7EF,450.31935715675354,411.38971614837646,False,NA,correct rejection,None,1500.0,4,6,2,4,1back_single_main_no_click,1,,,,,,OA01,001,no,1500,2000,150,250,500,2024-08-22_12h15.27.876,EXNAT_3_fMRI_Psychopy2023.1.3,2023.1.3,75.01026532466325,
,,,,3,0,3,0,,,,,,,#88BA3F,452.03874802589417,413.1091070175171,False,NA,correct rejection,None,1500.0,5,6,2,4,1back_single_main_no_click,1,,,,,,OA01,001,no,1500,2000,150,250,500,2024-08-22_12h15.27.876,EXNAT_3_fMRI_Psychopy2023.1.3,2023.1.3,75.01026532466325,
,,,,3,0,3,0,,,,,,,#88BA3F,453.7581219673157,414.8284809589386,True,1,hit,666.212797164917,1500.0,6,6,2,4,1back_single_main_no_click,1,,,,,,OA01,001,no,1500,2000,150,250,500,2024-08-22_12h15.27.876,EXNAT_3_fMRI_Psychopy2023.1.3,2023.1.3,75.01026532466325,
,,,,3,0,3,0,,,,,,,#D292F3,455.4775309562683,416.54788994789124,False,NA,correct rejection,None,1500.0,7,6,2,4,1back_single_main_no_click,1,,,,,,OA01,001,no,1500,2000,150,250,500,2024-08-22_12h15.27.876,EXNAT_3_fMRI_Psychopy2023.1.3,2023.1.3,75.01026532466325,
,,,,3,0,3,0,,,,,,,#F989A2,457.1969130039215,418.26727199554443,False,NA,correct rejection,None,1500.0,8,6,2,4,1back_single_main_no_click,1,,,,,,OA01,001,no,1500,2000,150,250,500,2024-08-22_12h15.27.876,EXNAT_3_fMRI_Psychopy2023.1.3,2023.1.3,75.01026532466325,
,,,,3,0,3,0,,,,,,,#2AB7EF,458.9163019657135,419.9866609573364,False,NA,correct rejection,None,1500.0,9,6,2,4,1back_single_main_no_click,1,,,,,,OA01,001,no,1500,2000,150,250,500,2024-08-22_12h15.27.876,EXNAT_3_fMRI_Psychopy2023.1.3,2023.1.3,75.01026532466325,
,,,,3,0,3,0,,,,,,,#F989A2,460.63570404052734,421.70606303215027,False,NA,correct rejection,None,1500.0,10,6,2,4,1back_single_main_no_click,1,,,,,,OA01,001,no,1500,2000,150,250,500,2024-08-22_12h15.27.876,EXNAT_3_fMRI_Psychopy2023.1.3,2023.1.3,75.01026532466325,
,,,,3,0,3,0,,,,,,,#D292F3,462.35508608818054,423.42544507980347,False,NA,correct rejection,None,1500.0,11,6,2,4,1back_single_main_no_click,1,,,,,,OA01,001,no,1500,2000,150,250,500,2024-08-22_12h15.27.876,EXNAT_3_fMRI_Psychopy2023.1.3,2023.1.3,75.01026532466325,
,,,,3,0,3,0,,,,,,,#2AB7EF,464.0744640827179,425.1448230743408,False,NA,correct rejection,None,1500.0,12,6,2,4,1back_single_main_no_click,1,,,,,,OA01,001,no,1500,2000,150,250,500,2024-08-22_12h15.27.876,EXNAT_3_fMRI_Psychopy2023.1.3,2023.1.3,75.01026532466325,
,,,,3,0,3,0,,,,,,,#88BA3F,465.79389905929565,426.8642580509186,False,NA,correct rejection,None,1500.0,13,6,2,4,1back_single_main_no_click,1,,,,,,OA01,001,no,1500,2000,150,250,500,2024-08-22_12h15.27.876,EXNAT_3_fMRI_Psychopy2023.1.3,2023.1.3,75.01026532466325,
,,,,3,0,3,0,,,,,,,#2AB7EF,467.51326608657837,428.5836250782013,False,NA,correct rejection,None,1500.0,14,6,2,4,1back_single_main_no_click,1,,,,,,OA01,001,no,1500,2000,150,250,500,2024-08-22_12h15.27.876,EXNAT_3_fMRI_Psychopy2023.1.3,2023.1.3,75.01026532466325,
,,,,3,0,3,0,,,,,,,#F989A2,469.23266100883484,430.30302000045776,False,NA,correct rejection,None,1500.0,15,6,2,4,1back_single_main_no_click,1,,,,,,OA01,001,no,1500,2000,150,250,500,2024-08-22_12h15.27.876,EXNAT_3_fMRI_Psychopy2023.1.3,2023.1.3,75.01026532466325,
,,,,3,0,3,0,,,,,,,#D292F3,470.95210099220276,432.0224599838257,False,NA,correct rejection,None,1500.0,16,6,2,4,1back_single_main_no_click,1,,,,,,OA01,001,no,1500,2000,150,250,500,2024-08-22_12h15.27.876,EXNAT_3_fMRI_Psychopy2023.1.3,2023.1.3,75.01026532466325,
,,,,3,0,3,0,,,,,,,#F989A2,472.67147612571716,433.7418351173401,False,NA,correct rejection,None,1500.0,17,6,2,4,1back_single_main_no_click,1,,,,,,OA01,001,no,1500,2000,150,250,500,2024-08-22_12h15.27.876,EXNAT_3_fMRI_Psychopy2023.1.3,2023.1.3,75.01026532466325,
,,,,3,0,3,0,,,,,,,#88BA3F,474.3908829689026,435.4612419605255,False,NA,correct rejection,None,1500.0,18,6,2,4,1back_single_main_no_click,1,,,,,,OA01,001,no,1500,2000,150,250,500,2024-08-22_12h15.27.876,EXNAT_3_fMRI_Psychopy2023.1.3,2023.1.3,75.01026532466325,
,,,,3,0,3,0,,,,,,,#D292F3,476.1102890968323,437.1806480884552,False,NA,correct rejection,None,1500.0,19,6,2,4,1back_single_main_no_click,1,,,,,,OA01,001,no,1500,2000,150,250,500,2024-08-22_12h15.27.876,EXNAT_3_fMRI_Psychopy2023.1.3,2023.1.3,75.01026532466325,
,,,,3,0,3,0,,,,,,,#88BA3F,477.829638004303,438.8999969959259,False,NA,correct rejection,None,1500.0,20,6,2,4,1back_single_main_no_click,1,,,,,,OA01,001,no,1500,2000,150,250,500,2024-08-22_12h15.27.876,EXNAT_3_fMRI_Psychopy2023.1.3,2023.1.3,75.01026532466325,
,,,,3,0,3,0,,,,,,,#F989A2,479.54903197288513,440.61939096450806,False,NA,correct rejection,None,1500.0,21,6,2,4,1back_single_main_no_click,1,,,,,,OA01,001,no,1500,2000,150,250,500,2024-08-22_12h15.27.876,EXNAT_3_fMRI_Psychopy2023.1.3,2023.1.3,75.01026532466325,
,,,,3,0,3,0,,,,,,,#D292F3,481.26842498779297,442.3387839794159,False,NA,correct rejection,None,1500.0,22,6,2,4,1back_single_main_no_click,1,,,,,,OA01,001,no,1500,2000,150,250,500,2024-08-22_12h15.27.876,EXNAT_3_fMRI_Psychopy2023.1.3,2023.1.3,75.01026532466325,
,,,,3,0,3,0,,,,,,,#2AB7EF,482.9878160953522,444.0581750869751,False,NA,correct rejection,None,1500.0,23,6,2,4,1back_single_main_no_click,1,,,,,,OA01,001,no,1500,2000,150,250,500,2024-08-22_12h15.27.876,EXNAT_3_fMRI_Psychopy2023.1.3,2023.1.3,75.01026532466325,
,,,,3,0,3,0,,,,,,,#2AB7EF,484.707218170166,445.77757716178894,True,1,hit,492.891788482666,1500.0,24,6,2,4,1back_single_main_no_click,1,,,,,,OA01,001,no,1500,2000,150,250,500,2024-08-22_12h15.27.876,EXNAT_3_fMRI_Psychopy2023.1.3,2023.1.3,75.01026532466325,
,,,,3,0,3,0,,,,,,,#88BA3F,486.4266149997711,447.49697399139404,False,NA,correct rejection,None,1500.0,25,6,2,4,1back_single_main_no_click,1,,,,,,OA01,001,no,1500,2000,150,250,500,2024-08-22_12h15.27.876,EXNAT_3_fMRI_Psychopy2023.1.3,2023.1.3,75.01026532466325,
,,,,3,0,3,0,,,,,,,#2AB7EF,488.14598298072815,449.2163419723511,False,NA,correct rejection,None,1500.0,26,6,2,4,1back_single_main_no_click,1,,,,,,OA01,001,no,1500,2000,150,250,500,2024-08-22_12h15.27.876,EXNAT_3_fMRI_Psychopy2023.1.3,2023.1.3,75.01026532466325,
,,,,3,0,3,0,,,,,,,#D292F3,489.8653869628906,450.93574595451355,False,NA,correct rejection,None,1500.0,27,6,2,4,1back_single_main_no_click,1,,,,,,OA01,001,no,1500,2000,150,250,500,2024-08-22_12h15.27.876,EXNAT_3_fMRI_Psychopy2023.1.3,2023.1.3,75.01026532466325,
,,,,3,0,3,0,,,,,,,#D292F3,491.5845561027527,452.6549150943756,True,1,hit,852.8769016265869,1500.0,28,6,2,4,1back_single_main_no_click,1,,,,,,OA01,001,no,1500,2000,150,250,500,2024-08-22_12h15.27.876,EXNAT_3_fMRI_Psychopy2023.1.3,2023.1.3,75.01026532466325,
,,,,3,0,3,0,,,,,,,#D292F3,493.3039491176605,454.37430810928345,True,NA,miss,None,1500.0,29,6,2,4,1back_single_main_no_click,1,,,,,,OA01,001,no,1500,2000,150,250,500,2024-08-22_12h15.27.876,EXNAT_3_fMRI_Psychopy2023.1.3,2023.1.3,75.01026532466325,
,,,,3,0,3,0,,,,,,,#F989A2,495.0233359336853,456.0936949253082,False,NA,correct rejection,None,1500.0,30,6,2,4,1back_single_main_no_click,1,,,,,,OA01,001,no,1500,2000,150,250,500,2024-08-22_12h15.27.876,EXNAT_3_fMRI_Psychopy2023.1.3,2023.1.3,75.01026532466325,
,,,,3,0,3,0,,,,,,,#2AB7EF,496.74274611473083,457.81310510635376,False,NA,correct rejection,None,1500.0,31,6,2,4,1back_single_main_no_click,1,,,,,,OA01,001,no,1500,2000,150,250,500,2024-08-22_12h15.27.876,EXNAT_3_fMRI_Psychopy2023.1.3,2023.1.3,75.01026532466325,
,,,,3,0,3,0,,,,,,,#F989A2,498.4621331691742,459.5324921607971,False,NA,correct rejection,None,1500.0,32,6,2,4,1back_single_main_no_click,1,,,,,,OA01,001,no,1500,2000,150,250,500,2024-08-22_12h15.27.876,EXNAT_3_fMRI_Psychopy2023.1.3,2023.1.3,75.01026532466325,
,,,,3,0,3,0,,,,,,,#88BA3F,500.181517124176,461.25187611579895,False,NA,correct rejection,None,1500.0,33,6,2,4,1back_single_main_no_click,1,,,,,,OA01,001,no,1500,2000,150,250,500,2024-08-22_12h15.27.876,EXNAT_3_fMRI_Psychopy2023.1.3,2023.1.3,75.01026532466325,
,,,,3,0,3,0,,,,,,,#F989A2,501.900906085968,462.97126507759094,False,NA,correct rejection,None,1500.0,34,6,2,4,1back_single_main_no_click,1,,,,,,OA01,001,no,1500,2000,150,250,500,2024-08-22_12h15.27.876,EXNAT_3_fMRI_Psychopy2023.1.3,2023.1.3,75.01026532466325,
,,,,3,0,3,0,,,,,,,#F989A2,503.6202931404114,464.6906521320343,True,1,hit,506.3340663909912,1500.0,35,6,2,4,1back_single_main_no_click,1,,,,,,OA01,001,no,1500,2000,150,250,500,2024-08-22_12h15.27.876,EXNAT_3_fMRI_Psychopy2023.1.3,2023.1.3,75.01026532466325,
,,,,3,0,3,0,,,,,,,#88BA3F,505.33972811698914,466.41008710861206,False,NA,correct rejection,None,1500.0,36,6,2,4,1back_single_main_no_click,1,,,,,,OA01,001,no,1500,2000,150,250,500,2024-08-22_12h15.27.876,EXNAT_3_fMRI_Psychopy2023.1.3,2023.1.3,75.01026532466325,
,,,,3,0,3,0,,,,,,,#D292F3,507.0591070652008,468.12946605682373,False,NA,correct rejection,None,1500.0,37,6,2,4,1back_single_main_no_click,1,,,,,,OA01,001,no,1500,2000,150,250,500,2024-08-22_12h15.27.876,EXNAT_3_fMRI_Psychopy2023.1.3,2023.1.3,75.01026532466325,
,,,,3,0,3,0,,,,,,,#88BA3F,508.7784881591797,469.8488471508026,False,NA,correct rejection,None,1500.0,38,6,2,4,1back_single_main_no_click,1,,,,,,OA01,001,no,1500,2000,150,250,500,2024-08-22_12h15.27.876,EXNAT_3_fMRI_Psychopy2023.1.3,2023.1.3,75.01026532466325,
,,,,3,0,3,0,,,,,,,#2AB7EF,510.4978721141815,471.56823110580444,False,NA,correct rejection,None,1500.0,39,6,2,4,1back_single_main_no_click,1,,,,,,OA01,001,no,1500,2000,150,250,500,2024-08-22_12h15.27.876,EXNAT_3_fMRI_Psychopy2023.1.3,2023.1.3,75.01026532466325,
,,,,3,0,3,0,,,,,,,#2AB7EF,512.2172801494598,473.28763914108276,True,1,hit,679.5928478240967,1500.0,40,6,2,4,1back_single_main_no_click,1,,,,,,OA01,001,no,1500,2000,150,250,500,2024-08-22_12h15.27.876,EXNAT_3_fMRI_Psychopy2023.1.3,2023.1.3,75.01026532466325,
,,,,3,0,3,0,,,,,,,#F989A2,513.9366829395294,475.00704193115234,False,NA,correct rejection,None,1500.0,41,6,2,4,1back_single_main_no_click,1,,,,,,OA01,001,no,1500,2000,150,250,500,2024-08-22_12h15.27.876,EXNAT_3_fMRI_Psychopy2023.1.3,2023.1.3,75.01026532466325,
,,,,3,0,3,0,,,,,,,#F989A2,515.6560680866241,476.72642707824707,True,1,hit,453.0069828033447,1500.0,42,6,2,4,1back_single_main_no_click,1,,,,,,OA01,001,no,1500,2000,150,250,500,2024-08-22_12h15.27.876,EXNAT_3_fMRI_Psychopy2023.1.3,2023.1.3,75.01026532466325,
,,,,3,0,3,0,,,,,,,#2AB7EF,517.3755040168762,478.44586300849915,False,NA,correct rejection,None,1500.0,43,6,2,4,1back_single_main_no_click,1,,,,,,OA01,001,no,1500,2000,150,250,500,2024-08-22_12h15.27.876,EXNAT_3_fMRI_Psychopy2023.1.3,2023.1.3,75.01026532466325,
,,,,3,0,3,0,,,,,,,#D292F3,519.0948779582977,480.16523694992065,False,NA,correct rejection,None,1500.0,44,6,2,4,1back_single_main_no_click,1,,,,,,OA01,001,no,1500,2000,150,250,500,2024-08-22_12h15.27.876,EXNAT_3_fMRI_Psychopy2023.1.3,2023.1.3,75.01026532466325,
,,,,3,0,3,0,,,,,,,#F989A2,520.8142290115356,481.88458800315857,False,NA,correct rejection,None,1500.0,45,6,2,4,1back_single_main_no_click,1,,,,,,OA01,001,no,1500,2000,150,250,500,2024-08-22_12h15.27.876,EXNAT_3_fMRI_Psychopy2023.1.3,2023.1.3,75.01026532466325,
,,,,3,0,3,0,,,,,,,#D292F3,522.5336451530457,483.6040041446686,False,NA,correct rejection,None,1500.0,46,6,2,4,1back_single_main_no_click,1,,,,,,OA01,001,no,1500,2000,150,250,500,2024-08-22_12h15.27.876,EXNAT_3_fMRI_Psychopy2023.1.3,2023.1.3,75.01026532466325,
,,,,3,0,3,0,,,,,,,#88BA3F,524.2530241012573,485.32338309288025,False,NA,correct rejection,None,1500.0,47,6,2,4,1back_single_main_no_click,1,,,,,,OA01,001,no,1500,2000,150,250,500,2024-08-22_12h15.27.876,EXNAT_3_fMRI_Psychopy2023.1.3,2023.1.3,75.01026532466325,
,,,,3,0,3,0,,,,,,,#88BA3F,525.9724180698395,487.0427770614624,True,1,hit,426.35512351989746,1500.0,48,6,2,4,1back_single_main_no_click,1,,,,,,OA01,001,no,1500,2000,150,250,500,2024-08-22_12h15.27.876,EXNAT_3_fMRI_Psychopy2023.1.3,2023.1.3,75.01026532466325,
,,,,3,0,3,0,,,,,,,#D292F3,527.691812992096,488.7621719837189,False,NA,correct rejection,None,1500.0,49,6,2,4,1back_single_main_no_click,1,,,,,,OA01,001,no,1500,2000,150,250,500,2024-08-22_12h15.27.876,EXNAT_3_fMRI_Psychopy2023.1.3,2023.1.3,75.01026532466325,
,,,,3,0,3,0,,,,,,,#D292F3,529.4112200737,490.4815790653229,True,1,hit,506.33692741394043,1500.0,50,6,2,4,1back_single_main_no_click,1,,,,,,OA01,001,no,1500,2000,150,250,500,2024-08-22_12h15.27.876,EXNAT_3_fMRI_Psychopy2023.1.3,2023.1.3,75.01026532466325,
,,,,3,0,3,0,,,,,,,#88BA3F,531.1306109428406,492.2009699344635,False,NA,correct rejection,None,1500.0,51,6,2,4,1back_single_main_no_click,1,,,,,,OA01,001,no,1500,2000,150,250,500,2024-08-22_12h15.27.876,EXNAT_3_fMRI_Psychopy2023.1.3,2023.1.3,75.01026532466325,
,,,,3,0,3,0,,,,,,,#F989A2,532.8500061035156,493.92036509513855,False,NA,correct rejection,None,1500.0,52,6,2,4,1back_single_main_no_click,1,,,,,,OA01,001,no,1500,2000,150,250,500,2024-08-22_12h15.27.876,EXNAT_3_fMRI_Psychopy2023.1.3,2023.1.3,75.01026532466325,
,,,,3,0,3,0,,,,,,,#2AB7EF,534.569384098053,495.6397430896759,False,NA,correct rejection,None,1500.0,53,6,2,4,1back_single_main_no_click,1,,,,,,OA01,001,no,1500,2000,150,250,500,2024-08-22_12h15.27.876,EXNAT_3_fMRI_Psychopy2023.1.3,2023.1.3,75.01026532466325,
,,,,3,0,3,0,,,,,,,#D292F3,536.2889120578766,497.3592710494995,False,NA,correct rejection,None,1500.0,54,6,2,4,1back_single_main_no_click,1,,,,,,OA01,001,no,1500,2000,150,250,500,2024-08-22_12h15.27.876,EXNAT_3_fMRI_Psychopy2023.1.3,2023.1.3,75.01026532466325,
,,,,3,0,3,0,,,,,,,#2AB7EF,538.0081810951233,499.0785400867462,False,NA,correct rejection,None,1500.0,55,6,2,4,1back_single_main_no_click,1,,,,,,OA01,001,no,1500,2000,150,250,500,2024-08-22_12h15.27.876,EXNAT_3_fMRI_Psychopy2023.1.3,2023.1.3,75.01026532466325,
,,,,3,0,3,0,,,,,,,#F989A2,539.7275760173798,500.7979350090027,False,NA,correct rejection,None,1500.0,56,6,2,4,1back_single_main_no_click,1,,,,,,OA01,001,no,1500,2000,150,250,500,2024-08-22_12h15.27.876,EXNAT_3_fMRI_Psychopy2023.1.3,2023.1.3,75.01026532466325,
,,,,3,0,3,0,,,,,,,#2AB7EF,541.446967124939,502.5173261165619,False,NA,correct rejection,None,1500.0,57,6,2,4,1back_single_main_no_click,1,,,,,,OA01,001,no,1500,2000,150,250,500,2024-08-22_12h15.27.876,EXNAT_3_fMRI_Psychopy2023.1.3,2023.1.3,75.01026532466325,
,,,,3,0,3,0,,,,,,,#88BA3F,543.1663639545441,504.236722946167,False,NA,correct rejection,None,1500.0,58,6,2,4,1back_single_main_no_click,1,,,,,,OA01,001,no,1500,2000,150,250,500,2024-08-22_12h15.27.876,EXNAT_3_fMRI_Psychopy2023.1.3,2023.1.3,75.01026532466325,
,,,,3,0,3,0,,,,,,,#88BA3F,544.8857960700989,505.9561550617218,True,1,hit,492.97094345092773,1500.0,59,6,2,4,1back_single_main_no_click,1,,,,,,OA01,001,no,1500,2000,150,250,500,2024-08-22_12h15.27.876,EXNAT_3_fMRI_Psychopy2023.1.3,2023.1.3,75.01026532466325,
,,,,3,0,3,0,,,,,,,#F989A2,546.6051509380341,507.675509929657,False,NA,correct rejection,None,1500.0,60,6,2,4,1back_single_main_no_click,1,,,,,,OA01,001,no,1500,2000,150,250,500,2024-08-22_12h15.27.876,EXNAT_3_fMRI_Psychopy2023.1.3,2023.1.3,75.01026532466325,
,,,,3,0,3,0,,,,,,,,,,,,,,,,,,,,,,,,,,OA01,001,no,1500,2000,150,250,500,2024-08-22_12h15.27.876,EXNAT_3_fMRI_Psychopy2023.1.3,2023.1.3,75.01026532466325,
,,,,,,,,0,0,0,0,1,628.5896880626678,#88BA3F,637.3923990726471,8.802711009979248,False,NA,correct rejection,None,2500.0,1,7,3,1,2back_dual_main_no_click,2,text_04,Jerry,,,,OA01,001,no,1500,2000,150,250,500,2024-08-22_12h15.27.876,EXNAT_3_fMRI_Psychopy2023.1.3,2023.1.3,75.01026532466325,
,,,,,,,,0,0,0,0,,,#D292F3,639.9091351032257,11.319447040557861,False,NA,correct rejection,None,2500.0,2,7,3,1,2back_dual_main_no_click,2,text_04,Robinson,,,,OA01,001,no,1500,2000,150,250,500,2024-08-22_12h15.27.876,EXNAT_3_fMRI_Psychopy2023.1.3,2023.1.3,75.01026532466325,
,,,,,,,,0,0,0,0,,,#2AB7EF,642.4138219356537,13.82413387298584,False,NA,correct rejection,None,2500.0,3,7,3,1,2back_dual_main_no_click,2,text_04,war,,,,OA01,001,no,1500,2000,150,250,500,2024-08-22_12h15.27.876,EXNAT_3_fMRI_Psychopy2023.1.3,2023.1.3,75.01026532466325,
,,,,,,,,0,0,0,0,,,#88BA3F,644.9195740222931,16.329885959625244,False,NA,correct rejection,None,2500.0,4,7,3,1,2back_dual_main_no_click,2,text_04,erst,,,,OA01,001,no,1500,2000,150,250,500,2024-08-22_12h15.27.876,EXNAT_3_fMRI_Psychopy2023.1.3,2023.1.3,75.01026532466325,
,,,,,,,,0,0,0,0,,,#D292F3,647.4283499717712,18.838661909103394,False,NA,correct rejection,None,2500.0,5,7,3,1,2back_dual_main_no_click,2,text_04,"17,",,,,OA01,001,no,1500,2000,150,250,500,2024-08-22_12h15.27.876,EXNAT_3_fMRI_Psychopy2023.1.3,2023.1.3,75.01026532466325,
,,,,,,,,0,0,0,0,,,#F989A2,649.9308121204376,21.341124057769775,False,NA,correct rejection,None,2500.0,6,7,3,1,2back_dual_main_no_click,2,text_04,als,,,,OA01,001,no,1500,2000,150,250,500,2024-08-22_12h15.27.876,EXNAT_3_fMRI_Psychopy2023.1.3,2023.1.3,75.01026532466325,
,,,,,,,,0,0,0,0,,,#88BA3F,652.4364831447601,23.846795082092285,False,NA,correct rejection,None,2500.0,7,7,3,1,2back_dual_main_no_click,2,text_04,er,,,,OA01,001,no,1500,2000,150,250,500,2024-08-22_12h15.27.876,EXNAT_3_fMRI_Psychopy2023.1.3,2023.1.3,75.01026532466325,
,,,,,,,,0,0,0,0,,,#2AB7EF,654.9426190853119,26.352931022644043,False,NA,correct rejection,None,2500.0,8,7,3,1,2back_dual_main_no_click,2,text_04,die,,,,OA01,001,no,1500,2000,150,250,500,2024-08-22_12h15.27.876,EXNAT_3_fMRI_Psychopy2023.1.3,2023.1.3,75.01026532466325,
,,,,,,,,0,0,0,0,,,#F989A2,657.4494071006775,28.859719038009644,False,NA,correct rejection,None,2500.0,9,7,3,1,2back_dual_main_no_click,2,text_04,wichtigste,,,,OA01,001,no,1500,2000,150,250,500,2024-08-22_12h15.27.876,EXNAT_3_fMRI_Psychopy2023.1.3,2023.1.3,75.01026532466325,
,,,,,,,,0,0,0,0,,,#D292F3,659.9548511505127,31.36516308784485,False,NA,correct rejection,None,2500.0,10,7,3,1,2back_dual_main_no_click,2,text_04,Entscheidung,,,,OA01,001,no,1500,2000,150,250,500,2024-08-22_12h15.27.876,EXNAT_3_fMRI_Psychopy2023.1.3,2023.1.3,75.01026532466325,
,,,,,,,,0,0,0,0,,,#2AB7EF,662.4597120285034,33.87002396583557,False,NA,correct rejection,None,2500.0,11,7,3,1,2back_dual_main_no_click,2,text_04,seines,,,,OA01,001,no,1500,2000,150,250,500,2024-08-22_12h15.27.876,EXNAT_3_fMRI_Psychopy2023.1.3,2023.1.3,75.01026532466325,
,,,,,,,,0,0,0,0,,,#F989A2,664.965970993042,36.376282930374146,False,NA,correct rejection,None,2500.0,12,7,3,1,2back_dual_main_no_click,2,text_04,Lebens,,,,OA01,001,no,1500,2000,150,250,500,2024-08-22_12h15.27.876,EXNAT_3_fMRI_Psychopy2023.1.3,2023.1.3,75.01026532466325,
,,,,,,,,0,0,0,0,,,#F989A2,667.4718420505524,38.88215398788452,False,1,false alarm,663.7279987335205,2500.0,13,7,3,1,2back_dual_main_no_click,2,text_04,traf -,,,,OA01,001,no,1500,2000,150,250,500,2024-08-22_12h15.27.876,EXNAT_3_fMRI_Psychopy2023.1.3,2023.1.3,75.01026532466325,
,,,,,,,,0,0,0,0,,,#88BA3F,669.976870059967,41.387181997299194,False,NA,correct rejection,None,2500.0,14,7,3,1,2back_dual_main_no_click,2,text_04,und,,,,OA01,001,no,1500,2000,150,250,500,2024-08-22_12h15.27.876,EXNAT_3_fMRI_Psychopy2023.1.3,2023.1.3,75.01026532466325,
,,,,,,,,0,0,0,0,,,#D292F3,672.483481168747,43.8937931060791,False,NA,correct rejection,None,2500.0,15,7,3,1,2back_dual_main_no_click,2,text_04,möglicherweise,,,,OA01,001,no,1500,2000,150,250,500,2024-08-22_12h15.27.876,EXNAT_3_fMRI_Psychopy2023.1.3,2023.1.3,75.01026532466325,
,,,,,,,,0,0,0,0,,,#D292F3,674.9886159896851,46.39892792701721,False,1,false alarm,771.0108757019043,2500.0,16,7,3,1,2back_dual_main_no_click,2,text_04,seinen,,,,OA01,001,no,1500,2000,150,250,500,2024-08-22_12h15.27.876,EXNAT_3_fMRI_Psychopy2023.1.3,2023.1.3,75.01026532466325,
,,,,,,,,0,0,0,0,,,#F989A2,677.494756937027,48.90506887435913,False,NA,correct rejection,None,2500.0,17,7,3,1,2back_dual_main_no_click,2,text_04,größten,,,,OA01,001,no,1500,2000,150,250,500,2024-08-22_12h15.27.876,EXNAT_3_fMRI_Psychopy2023.1.3,2023.1.3,75.01026532466325,
,,,,,,,,0,0,0,0,,,#D292F3,680.0004739761353,51.41078591346741,True,NA,miss,None,2500.0,18,7,3,1,2back_dual_main_no_click,2,text_04,Fehler,,,,OA01,001,no,1500,2000,150,250,500,2024-08-22_12h15.27.876,EXNAT_3_fMRI_Psychopy2023.1.3,2023.1.3,75.01026532466325,
,,,,,,,,0,0,0,0,,,#F989A2,682.5064899921417,53.91680192947388,True,NA,miss,None,2500.0,19,7,3,1,2back_dual_main_no_click,2,text_04,beging.,,,,OA01,001,no,1500,2000,150,250,500,2024-08-22_12h15.27.876,EXNAT_3_fMRI_Psychopy2023.1.3,2023.1.3,75.01026532466325,
,,,,,,,,0,0,0,0,,,#88BA3F,685.0133740901947,56.423686027526855,False,NA,correct rejection,None,2500.0,20,7,3,1,2back_dual_main_no_click,2,text_04,Statt,,,,OA01,001,no,1500,2000,150,250,500,2024-08-22_12h15.27.876,EXNAT_3_fMRI_Psychopy2023.1.3,2023.1.3,75.01026532466325,
,,,,,,,,0,0,0,0,,,#2AB7EF,687.5172300338745,58.927541971206665,False,NA,correct rejection,None,2500.0,21,7,3,1,2back_dual_main_no_click,2,text_04,wie,,,,OA01,001,no,1500,2000,150,250,500,2024-08-22_12h15.27.876,EXNAT_3_fMRI_Psychopy2023.1.3,2023.1.3,75.01026532466325,
,,,,,,,,0,0,0,0,,,#2AB7EF,690.0239090919495,61.434221029281616,False,NA,correct rejection,None,2500.0,22,7,3,1,2back_dual_main_no_click,2,text_04,geplant,,,,OA01,001,no,1500,2000,150,250,500,2024-08-22_12h15.27.876,EXNAT_3_fMRI_Psychopy2023.1.3,2023.1.3,75.01026532466325,
,,,,,,,,0,0,0,0,,,#2AB7EF,692.5290911197662,63.93940305709839,True,1,hit,784.3680381774902,2500.0,23,7,3,1,2back_dual_main_no_click,2,text_04,aufs,,,,OA01,001,no,1500,2000,150,250,500,2024-08-22_12h15.27.876,EXNAT_3_fMRI_Psychopy2023.1.3,2023.1.3,75.01026532466325,
,,,,,,,,0,0,0,0,,,#88BA3F,695.0354039669037,66.44571590423584,False,NA,correct rejection,None,2500.0,24,7,3,1,2back_dual_main_no_click,2,text_04,College,,,,OA01,001,no,1500,2000,150,250,500,2024-08-22_12h15.27.876,EXNAT_3_fMRI_Psychopy2023.1.3,2023.1.3,75.01026532466325,
,,,,,,,,0,0,0,0,,,#88BA3F,697.5410759449005,68.95138788223267,False,NA,correct rejection,None,2500.0,25,7,3,1,2back_dual_main_no_click,2,text_04,zu,,,,OA01,001,no,1500,2000,150,250,500,2024-08-22_12h15.27.876,EXNAT_3_fMRI_Psychopy2023.1.3,2023.1.3,75.01026532466325,
,,,,,,,,0,0,0,0,,,#F989A2,700.0466270446777,71.45693898200989,False,NA,correct rejection,None,2500.0,26,7,3,1,2back_dual_main_no_click,2,text_04,"gehen,",,,,OA01,001,no,1500,2000,150,250,500,2024-08-22_12h15.27.876,EXNAT_3_fMRI_Psychopy2023.1.3,2023.1.3,75.01026532466325,
,,,,,,,,0,0,0,0,,,#88BA3F,702.552206993103,73.96251893043518,True,NA,miss,None,2500.0,27,7,3,1,2back_dual_main_no_click,2,text_04,ließ,,,,OA01,001,no,1500,2000,150,250,500,2024-08-22_12h15.27.876,EXNAT_3_fMRI_Psychopy2023.1.3,2023.1.3,75.01026532466325,
,,,,,,,,0,0,0,0,,,#D292F3,705.057991027832,76.46830296516418,False,NA,correct rejection,None,2500.0,28,7,3,1,2back_dual_main_no_click,2,text_04,er,,,,OA01,001,no,1500,2000,150,250,500,2024-08-22_12h15.27.876,EXNAT_3_fMRI_Psychopy2023.1.3,2023.1.3,75.01026532466325,
,,,,,,,,0,0,0,0,,,#F989A2,707.5638530254364,78.97416496276855,False,NA,correct rejection,None,2500.0,29,7,3,1,2back_dual_main_no_click,2,text_04,sich,,,,OA01,001,no,1500,2000,150,250,500,2024-08-22_12h15.27.876,EXNAT_3_fMRI_Psychopy2023.1.3,2023.1.3,75.01026532466325,
,,,,,,,,0,0,0,0,,,#D292F3,710.0698130130768,81.48012495040894,True,NA,miss,None,2500.0,30,7,3,1,2back_dual_main_no_click,2,text_04,von,,,,OA01,001,no,1500,2000,150,250,500,2024-08-22_12h15.27.876,EXNAT_3_fMRI_Psychopy2023.1.3,2023.1.3,75.01026532466325,
,,,,,,,,0,0,0,0,,,#D292F3,712.57546210289,83.98577404022217,False,NA,correct rejection,None,2500.0,31,7,3,1,2back_dual_main_no_click,2,text_04,einem,,,,OA01,001,no,1500,2000,150,250,500,2024-08-22_12h15.27.876,EXNAT_3_fMRI_Psychopy2023.1.3,2023.1.3,75.01026532466325,
,,,,,,,,0,0,0,0,,,#F989A2,715.0816221237183,86.49193406105042,False,NA,correct rejection,None,2500.0,32,7,3,1,2back_dual_main_no_click,2,text_04,Mann,,,,OA01,001,no,1500,2000,150,250,500,2024-08-22_12h15.27.876,EXNAT_3_fMRI_Psychopy2023.1.3,2023.1.3,75.01026532466325,
,,,,,,,,0,0,0,0,,,#2AB7EF,717.5870361328125,88.99734807014465,False,NA,correct rejection,None,2500.0,33,7,3,1,2back_dual_main_no_click,2,text_04,namens,,,,OA01,001,no,1500,2000,150,250,500,2024-08-22_12h15.27.876,EXNAT_3_fMRI_Psychopy2023.1.3,2023.1.3,75.01026532466325,
,,,,,,,,0,0,0,0,,,#88BA3F,720.0928571224213,91.50316905975342,False,NA,correct rejection,None,2500.0,34,7,3,1,2back_dual_main_no_click,2,text_04,Bob,,,,OA01,001,no,1500,2000,150,250,500,2024-08-22_12h15.27.876,EXNAT_3_fMRI_Psychopy2023.1.3,2023.1.3,75.01026532466325,
,,,,,,,,0,0,0,0,,,#2AB7EF,722.5991060733795,94.00941801071167,True,1,hit,1250.2989768981934,2500.0,35,7,3,1,2back_dual_main_no_click,2,text_04,Kane,,,,OA01,001,no,1500,2000,150,250,500,2024-08-22_12h15.27.876,EXNAT_3_fMRI_Psychopy2023.1.3,2023.1.3,75.01026532466325,
,,,,,,,,0,0,0,0,,,#2AB7EF,725.1040980815887,96.5144100189209,False,NA,correct rejection,None,2500.0,36,7,3,1,2back_dual_main_no_click,2,text_04,als,,,,OA01,001,no,1500,2000,150,250,500,2024-08-22_12h15.27.876,EXNAT_3_fMRI_Psychopy2023.1.3,2023.1.3,75.01026532466325,
,,,,,,,,0,0,0,0,,,#D292F3,727.6111030578613,99.02141499519348,False,NA,correct rejection,None,2500.0,37,7,3,1,2back_dual_main_no_click,2,text_04,Zeichner,,,,OA01,001,no,1500,2000,150,250,500,2024-08-22_12h15.27.876,EXNAT_3_fMRI_Psychopy2023.1.3,2023.1.3,75.01026532466325,
,,,,,,,,0,0,0,0,,,#D292F3,730.116014957428,101.52632689476013,False,NA,correct rejection,None,2500.0,38,7,3,1,2back_dual_main_no_click,2,text_04,engagieren.,,,,OA01,001,no,1500,2000,150,250,500,2024-08-22_12h15.27.876,EXNAT_3_fMRI_Psychopy2023.1.3,2023.1.3,75.01026532466325,
,,,,,,,,0,0,0,0,,,#88BA3F,732.6218280792236,104.03214001655579,False,NA,correct rejection,None,2500.0,39,7,3,1,2back_dual_main_no_click,2,text_04,Kane,,,,OA01,001,no,1500,2000,150,250,500,2024-08-22_12h15.27.876,EXNAT_3_fMRI_Psychopy2023.1.3,2023.1.3,75.01026532466325,
,,,,,,,,0,0,0,0,,,#D292F3,735.1274721622467,106.53778409957886,True,NA,miss,None,2500.0,40,7,3,1,2back_dual_main_no_click,2,text_04,hatte,,,,OA01,001,no,1500,2000,150,250,500,2024-08-22_12h15.27.876,EXNAT_3_fMRI_Psychopy2023.1.3,2023.1.3,75.01026532466325,
,,,,,,,,0,0,0,0,,,#F989A2,737.6334230899811,109.04373502731323,False,NA,correct rejection,None,2500.0,41,7,3,1,2back_dual_main_no_click,2,text_04,gerade,,,,OA01,001,no,1500,2000,150,250,500,2024-08-22_12h15.27.876,EXNAT_3_fMRI_Psychopy2023.1.3,2023.1.3,75.01026532466325,
,,,,,,,,0,0,0,0,,,#F989A2,740.138913154602,111.5492250919342,False,NA,correct rejection,None,2500.0,42,7,3,1,2back_dual_main_no_click,2,text_04,die,,,,OA01,001,no,1500,2000,150,250,500,2024-08-22_12h15.27.876,EXNAT_3_fMRI_Psychopy2023.1.3,2023.1.3,75.01026532466325,
,,,,,,,,0,0,0,0,,,#88BA3F,742.6449151039124,114.0552270412445,False,NA,correct rejection,None,2500.0,43,7,3,1,2back_dual_main_no_click,2,text_04,Zeichnungen,,,,OA01,001,no,1500,2000,150,250,500,2024-08-22_12h15.27.876,EXNAT_3_fMRI_Psychopy2023.1.3,2023.1.3,75.01026532466325,
,,,,,,,,0,0,0,0,,,#88BA3F,745.1511240005493,116.56143593788147,False,NA,correct rejection,None,2500.0,44,7,3,1,2back_dual_main_no_click,2,text_04,für,,,,OA01,001,no,1500,2000,150,250,500,2024-08-22_12h15.27.876,EXNAT_3_fMRI_Psychopy2023.1.3,2023.1.3,75.01026532466325,
,,,,,,,,0,0,0,0,,,#2AB7EF,747.656054019928,119.06636595726013,False,NA,correct rejection,None,2500.0,45,7,3,1,2back_dual_main_no_click,2,text_04,ein,,,,OA01,001,no,1500,2000,150,250,500,2024-08-22_12h15.27.876,EXNAT_3_fMRI_Psychopy2023.1.3,2023.1.3,75.01026532466325,
,,,,,,,,0,0,0,0,,,#2AB7EF,750.1620359420776,121.57234787940979,False,NA,correct rejection,None,2500.0,46,7,3,1,2back_dual_main_no_click,2,text_04,Comicheft,,,,OA01,001,no,1500,2000,150,250,500,2024-08-22_12h15.27.876,EXNAT_3_fMRI_Psychopy2023.1.3,2023.1.3,75.01026532466325,
,,,,,,,,0,0,0,0,,,#F989A2,752.6679620742798,124.07827401161194,False,NA,correct rejection,None,2500.0,47,7,3,1,2back_dual_main_no_click,2,text_04,"abgeliefert,",,,,OA01,001,no,1500,2000,150,250,500,2024-08-22_12h15.27.876,EXNAT_3_fMRI_Psychopy2023.1.3,2023.1.3,75.01026532466325,
,,,,,,,,0,0,0,0,,,#2AB7EF,755.1734261512756,126.58373808860779,True,NA,miss,None,2500.0,48,7,3,1,2back_dual_main_no_click,2,text_04,in,,,,OA01,001,no,1500,2000,150,250,500,2024-08-22_12h15.27.876,EXNAT_3_fMRI_Psychopy2023.1.3,2023.1.3,75.01026532466325,
,,,,,,,,0,0,0,0,,,#F989A2,757.6794469356537,129.08975887298584,True,NA,miss,None,2500.0,49,7,3,1,2back_dual_main_no_click,2,text_04,dem,,,,OA01,001,no,1500,2000,150,250,500,2024-08-22_12h15.27.876,EXNAT_3_fMRI_Psychopy2023.1.3,2023.1.3,75.01026532466325,
,,,,,,,,0,0,0,0,,,#2AB7EF,760.1850039958954,131.59531593322754,True,1,hit,278.1050205230713,2500.0,50,7,3,1,2back_dual_main_no_click,2,text_04,er,,,,OA01,001,no,1500,2000,150,250,500,2024-08-22_12h15.27.876,EXNAT_3_fMRI_Psychopy2023.1.3,2023.1.3,75.01026532466325,
,,,,,,,,0,0,0,0,,,#F989A2,762.6910080909729,134.10132002830505,True,NA,miss,None,2500.0,51,7,3,1,2back_dual_main_no_click,2,text_04,eine,,,,OA01,001,no,1500,2000,150,250,500,2024-08-22_12h15.27.876,EXNAT_3_fMRI_Psychopy2023.1.3,2023.1.3,75.01026532466325,
,,,,,,,,0,0,0,0,,,#88BA3F,765.1967580318451,136.60706996917725,False,NA,correct rejection,None,2500.0,52,7,3,1,2back_dual_main_no_click,2,text_04,völlig,,,,OA01,001,no,1500,2000,150,250,500,2024-08-22_12h15.27.876,EXNAT_3_fMRI_Psychopy2023.1.3,2023.1.3,75.01026532466325,
,,,,,,,,0,0,0,0,,,#D292F3,767.702476978302,139.11278891563416,False,NA,correct rejection,None,2500.0,53,7,3,1,2back_dual_main_no_click,2,text_04,neue,,,,OA01,001,no,1500,2000,150,250,500,2024-08-22_12h15.27.876,EXNAT_3_fMRI_Psychopy2023.1.3,2023.1.3,75.01026532466325,
,,,,,,,,0,0,0,0,,,#2AB7EF,770.2087280750275,141.61904001235962,False,NA,correct rejection,None,2500.0,54,7,3,1,2back_dual_main_no_click,2,text_04,Figur,,,,OA01,001,no,1500,2000,150,250,500,2024-08-22_12h15.27.876,EXNAT_3_fMRI_Psychopy2023.1.3,2023.1.3,75.01026532466325,
,,,,,,,,0,0,0,0,,,#88BA3F,772.7144010066986,144.12471294403076,False,NA,correct rejection,None,2500.0,55,7,3,1,2back_dual_main_no_click,2,text_04,auftreten,,,,OA01,001,no,1500,2000,150,250,500,2024-08-22_12h15.27.876,EXNAT_3_fMRI_Psychopy2023.1.3,2023.1.3,75.01026532466325,
,,,,,,,,0,0,0,0,,,#88BA3F,775.2202889919281,146.63060092926025,False,NA,correct rejection,None,2500.0,56,7,3,1,2back_dual_main_no_click,2,text_04,"ließ,",,,,OA01,001,no,1500,2000,150,250,500,2024-08-22_12h15.27.876,EXNAT_3_fMRI_Psychopy2023.1.3,2023.1.3,75.01026532466325,
,,,,,,,,0,0,0,0,,,#F989A2,777.7258639335632,149.13617587089539,False,NA,correct rejection,None,2500.0,57,7,3,1,2back_dual_main_no_click,2,text_04,genannt,,,,OA01,001,no,1500,2000,150,250,500,2024-08-22_12h15.27.876,EXNAT_3_fMRI_Psychopy2023.1.3,2023.1.3,75.01026532466325,
,,,,,,,,0,0,0,0,,,#2AB7EF,780.2322199344635,151.64253187179565,False,NA,correct rejection,None,2500.0,58,7,3,1,2back_dual_main_no_click,2,text_04,""Batman"".,,,,OA01,001,no,1500,2000,150,250,500,2024-08-22_12h15.27.876,EXNAT_3_fMRI_Psychopy2023.1.3,2023.1.3,75.01026532466325,
,,,,,,,,0,0,0,0,,,#D292F3,782.7372009754181,154.14751291275024,False,NA,correct rejection,None,2500.0,59,7,3,1,2back_dual_main_no_click,2,text_04,Jetzt,,,,OA01,001,no,1500,2000,150,250,500,2024-08-22_12h15.27.876,EXNAT_3_fMRI_Psychopy2023.1.3,2023.1.3,75.01026532466325,
,,,,,,,,0,0,0,0,,,#D292F3,785.2430830001831,156.65339493751526,False,NA,correct rejection,None,2500.0,60,7,3,1,2back_dual_main_no_click,2,text_04,machte,,,,OA01,001,no,1500,2000,150,250,500,2024-08-22_12h15.27.876,EXNAT_3_fMRI_Psychopy2023.1.3,2023.1.3,75.01026532466325,
,,,,,,,,0,0,0,0,,,#2AB7EF,787.7488689422607,159.1591808795929,False,1,false alarm,744.3559169769287,2500.0,61,7,3,1,2back_dual_main_no_click,2,text_04,er,,,,OA01,001,no,1500,2000,150,250,500,2024-08-22_12h15.27.876,EXNAT_3_fMRI_Psychopy2023.1.3,2023.1.3,75.01026532466325,
,,,,,,,,0,0,0,0,,,#88BA3F,790.2556231021881,161.66593503952026,False,NA,correct rejection,None,2500.0,62,7,3,1,2back_dual_main_no_click,2,text_04,Urlaub,,,,OA01,001,no,1500,2000,150,250,500,2024-08-22_12h15.27.876,EXNAT_3_fMRI_Psychopy2023.1.3,2023.1.3,75.01026532466325,
,,,,,,,,0,0,0,0,,,#D292F3,792.7603471279144,164.17065906524658,False,NA,correct rejection,None,2500.0,63,7,3,1,2back_dual_main_no_click,2,text_04,in,,,,OA01,001,no,1500,2000,150,250,500,2024-08-22_12h15.27.876,EXNAT_3_fMRI_Psychopy2023.1.3,2023.1.3,75.01026532466325,
,,,,,,,,0,0,0,0,,,#D292F3,795.266037940979,166.67634987831116,False,NA,correct rejection,None,2500.0,64,7,3,1,2back_dual_main_no_click,2,text_04,den,,,,OA01,001,no,1500,2000,150,250,500,2024-08-22_12h15.27.876,EXNAT_3_fMRI_Psychopy2023.1.3,2023.1.3,75.01026532466325,
,,,,,,,,0,0,0,0,,,#88BA3F,797.7724990844727,169.1828110218048,False,NA,correct rejection,None,2500.0,65,7,3,1,2back_dual_main_no_click,2,text_04,"Poconos,",,,,OA01,001,no,1500,2000,150,250,500,2024-08-22_12h15.27.876,EXNAT_3_fMRI_Psychopy2023.1.3,2023.1.3,75.01026532466325,
,,,,,,,,0,0,0,0,,,#D292F3,800.277745962143,171.6880578994751,True,NA,miss,None,2500.0,66,7,3,1,2back_dual_main_no_click,2,text_04,einem,,,,OA01,001,no,1500,2000,150,250,500,2024-08-22_12h15.27.876,EXNAT_3_fMRI_Psychopy2023.1.3,2023.1.3,75.01026532466325,
,,,,,,,,0,0,0,0,,,#F989A2,802.784255027771,174.19456696510315,False,NA,correct rejection,None,2500.0,67,7,3,1,2back_dual_main_no_click,2,text_04,Ausflugsgebiet,,,,OA01,001,no,1500,2000,150,250,500,2024-08-22_12h15.27.876,EXNAT_3_fMRI_Psychopy2023.1.3,2023.1.3,75.01026532466325,
,,,,,,,,0,0,0,0,,,#F989A2,805.289085149765,176.69939708709717,False,NA,correct rejection,None,2500.0,68,7,3,1,2back_dual_main_no_click,2,text_04,in,,,,OA01,001,no,1500,2000,150,250,500,2024-08-22_12h15.27.876,EXNAT_3_fMRI_Psychopy2023.1.3,2023.1.3,75.01026532466325,
,,,,,,,,0,0,0,0,,,#2AB7EF,807.7955911159515,179.2059030532837,False,NA,correct rejection,None,2500.0,69,7,3,1,2back_dual_main_no_click,2,text_04,Pennsylvania.,,,,OA01,001,no,1500,2000,150,250,500,2024-08-22_12h15.27.876,EXNAT_3_fMRI_Psychopy2023.1.3,2023.1.3,75.01026532466325,
,,,,,,,,0,0,0,0,,,#88BA3F,810.3012180328369,181.71152997016907,False,NA,correct rejection,None,2500.0,70,7,3,1,2back_dual_main_no_click,2,text_04,Der,,,,OA01,001,no,1500,2000,150,250,500,2024-08-22_12h15.27.876,EXNAT_3_fMRI_Psychopy2023.1.3,2023.1.3,75.01026532466325,
,,,,,,,,0,0,0,0,,,#F989A2,812.8070139884949,184.21732592582703,False,NA,correct rejection,None,2500.0,71,7,3,1,2back_dual_main_no_click,2,text_04,untergewichtige,,,,OA01,001,no,1500,2000,150,250,500,2024-08-22_12h15.27.876,EXNAT_3_fMRI_Psychopy2023.1.3,2023.1.3,75.01026532466325,
,,,,,,,,0,0,0,0,,,#2AB7EF,815.3124220371246,186.7227339744568,False,NA,correct rejection,None,2500.0,72,7,3,1,2back_dual_main_no_click,2,text_04,Jerry,,,,OA01,001,no,1500,2000,150,250,500,2024-08-22_12h15.27.876,EXNAT_3_fMRI_Psychopy2023.1.3,2023.1.3,75.01026532466325,
,,,,,,,,0,0,0,0,,,#F989A2,817.8182129859924,189.22852492332458,True,NA,miss,None,2500.0,73,7,3,1,2back_dual_main_no_click,2,text_04,Robinson,,,,OA01,001,no,1500,2000,150,250,500,2024-08-22_12h15.27.876,EXNAT_3_fMRI_Psychopy2023.1.3,2023.1.3,75.01026532466325,
,,,,,,,,0,0,0,0,,,#F989A2,820.3240270614624,191.73433899879456,False,NA,correct rejection,None,2500.0,74,7,3,1,2back_dual_main_no_click,2,text_04,war,,,,OA01,001,no,1500,2000,150,250,500,2024-08-22_12h15.27.876,EXNAT_3_fMRI_Psychopy2023.1.3,2023.1.3,75.01026532466325,
,,,,,,,,0,0,0,0,,,#88BA3F,822.8298020362854,194.24011397361755,False,NA,correct rejection,None,2500.0,75,7,3,1,2back_dual_main_no_click,2,text_04,auf,,,,OA01,001,no,1500,2000,150,250,500,2024-08-22_12h15.27.876,EXNAT_3_fMRI_Psychopy2023.1.3,2023.1.3,75.01026532466325,
,,,,,,,,0,0,0,0,,,#88BA3F,825.3355300426483,196.74584197998047,False,NA,correct rejection,None,2500.0,76,7,3,1,2back_dual_main_no_click,2,text_04,einer,,,,OA01,001,no,1500,2000,150,250,500,2024-08-22_12h15.27.876,EXNAT_3_fMRI_Psychopy2023.1.3,2023.1.3,75.01026532466325,
,,,,,,,,0,0,0,0,,,#D292F3,827.8416221141815,199.25193405151367,False,NA,correct rejection,None,2500.0,77,7,3,1,2back_dual_main_no_click,2,text_04,Kur,,,,OA01,001,no,1500,2000,150,250,500,2024-08-22_12h15.27.876,EXNAT_3_fMRI_Psychopy2023.1.3,2023.1.3,75.01026532466325,
,,,,,,,,0,0,0,0,,,#2AB7EF,830.3472509384155,201.75756287574768,False,NA,correct rejection,None,2500.0,78,7,3,1,2back_dual_main_no_click,2,text_04,"dort,",,,,OA01,001,no,1500,2000,150,250,500,2024-08-22_12h15.27.876,EXNAT_3_fMRI_Psychopy2023.1.3,2023.1.3,75.01026532466325,
,,,,,,,,0,0,0,0,,,#D292F3,832.852746963501,204.26305890083313,True,NA,miss,None,2500.0,79,7,3,1,2back_dual_main_no_click,2,text_04,um,,,,OA01,001,no,1500,2000,150,250,500,2024-08-22_12h15.27.876,EXNAT_3_fMRI_Psychopy2023.1.3,2023.1.3,75.01026532466325,
,,,,,,,,0,0,0,0,,,#2AB7EF,835.3595249652863,206.7698369026184,True,NA,miss,None,2500.0,80,7,3,1,2back_dual_main_no_click,2,text_04,Gewicht,,,,OA01,001,no,1500,2000,150,250,500,2024-08-22_12h15.27.876,EXNAT_3_fMRI_Psychopy2023.1.3,2023.1.3,75.01026532466325,
,,,,,,,,0,0,0,0,,,#88BA3F,837.864727973938,209.27503991127014,False,NA,correct rejection,None,2500.0,81,7,3,1,2back_dual_main_no_click,2,text_04,zuzulegen.,,,,OA01,001,no,1500,2000,150,250,500,2024-08-22_12h15.27.876,EXNAT_3_fMRI_Psychopy2023.1.3,2023.1.3,75.01026532466325,
,,,,,,,,0,0,0,0,,,#88BA3F,840.3705589771271,211.78087091445923,False,1,false alarm,2223.5589027404785,2500.0,82,7,3,1,2back_dual_main_no_click,2,text_04,Um,,,,OA01,001,no,1500,2000,150,250,500,2024-08-22_12h15.27.876,EXNAT_3_fMRI_Psychopy2023.1.3,2023.1.3,75.01026532466325,
,,,,,,,,0,0,0,0,,,#F989A2,842.8760199546814,214.28633189201355,False,NA,correct rejection,None,2500.0,83,7,3,1,2back_dual_main_no_click,2,text_04,Bob,,,,OA01,001,no,1500,2000,150,250,500,2024-08-22_12h15.27.876,EXNAT_3_fMRI_Psychopy2023.1.3,2023.1.3,75.01026532466325,
,,,,,,,,0,0,0,0,,,#2AB7EF,845.3818719387054,216.7921838760376,False,NA,correct rejection,None,2500.0,84,7,3,1,2back_dual_main_no_click,2,text_04,Kane,,,,OA01,001,no,1500,2000,150,250,500,2024-08-22_12h15.27.876,EXNAT_3_fMRI_Psychopy2023.1.3,2023.1.3,75.01026532466325,
,,,,,,,,0,0,0,0,,,#F989A2,847.8878870010376,219.29819893836975,True,NA,miss,None,2500.0,85,7,3,1,2back_dual_main_no_click,2,text_04,von,,,,OA01,001,no,1500,2000,150,250,500,2024-08-22_12h15.27.876,EXNAT_3_fMRI_Psychopy2023.1.3,2023.1.3,75.01026532466325,
,,,,,,,,0,0,0,0,,,#2AB7EF,850.3933761119843,221.8036880493164,True,NA,miss,None,2500.0,86,7,3,1,2back_dual_main_no_click,2,text_04,seinem,,,,OA01,001,no,1500,2000,150,250,500,2024-08-22_12h15.27.876,EXNAT_3_fMRI_Psychopy2023.1.3,2023.1.3,75.01026532466325,
,,,,,,,,0,0,0,0,,,#D292F3,852.8998200893402,224.31013202667236,False,NA,correct rejection,None,2500.0,87,7,3,1,2back_dual_main_no_click,2,text_04,Talent,,,,OA01,001,no,1500,2000,150,250,500,2024-08-22_12h15.27.876,EXNAT_3_fMRI_Psychopy2023.1.3,2023.1.3,75.01026532466325,
,,,,,,,,0,0,0,0,,,#F989A2,855.4047591686249,226.81507110595703,False,NA,correct rejection,None,2500.0,88,7,3,1,2back_dual_main_no_click,2,text_04,als,,,,OA01,001,no,1500,2000,150,250,500,2024-08-22_12h15.27.876,EXNAT_3_fMRI_Psychopy2023.1.3,2023.1.3,75.01026532466325,
,,,,,,,,0,0,0,0,,,#88BA3F,857.9110081195831,229.32132005691528,False,NA,correct rejection,None,2500.0,89,7,3,1,2back_dual_main_no_click,2,text_04,Zeichner,,,,OA01,001,no,1500,2000,150,250,500,2024-08-22_12h15.27.876,EXNAT_3_fMRI_Psychopy2023.1.3,2023.1.3,75.01026532466325,
,,,,,,,,0,0,0,0,,,#D292F3,860.4163129329681,231.8266248703003,False,NA,correct rejection,None,2500.0,90,7,3,1,2back_dual_main_no_click,2,text_04,zu,,,,OA01,001,no,1500,2000,150,250,500,2024-08-22_12h15.27.876,EXNAT_3_fMRI_Psychopy2023.1.3,2023.1.3,75.01026532466325,
,,,,,,,,0,0,0,0,,,#F989A2,862.92263007164,234.33294200897217,False,NA,correct rejection,None,2500.0,91,7,3,1,2back_dual_main_no_click,2,text_04,"überzeugen,",,,,OA01,001,no,1500,2000,150,250,500,2024-08-22_12h15.27.876,EXNAT_3_fMRI_Psychopy2023.1.3,2023.1.3,75.01026532466325,
,,,,,,,,0,0,0,0,,,#D292F3,865.4283270835876,236.8386390209198,True,1,hit,1144.0870761871338,2500.0,92,7,3,1,2back_dual_main_no_click,2,text_04,fertigte,,,,OA01,001,no,1500,2000,150,250,500,2024-08-22_12h15.27.876,EXNAT_3_fMRI_Psychopy2023.1.3,2023.1.3,75.01026532466325,
,,,,,,,,0,0,0,0,,,#2AB7EF,867.9338309764862,239.34414291381836,False,NA,correct rejection,None,2500.0,93,7,3,1,2back_dual_main_no_click,2,text_04,Jerry,,,,OA01,001,no,1500,2000,150,250,500,2024-08-22_12h15.27.876,EXNAT_3_fMRI_Psychopy2023.1.3,2023.1.3,75.01026532466325,
,,,,,,,,0,0,0,0,,,#88BA3F,870.4397389888763,241.8500509262085,False,NA,correct rejection,None,2500.0,94,7,3,1,2back_dual_main_no_click,2,text_04,Robinson,,,,OA01,001,no,1500,2000,150,250,500,2024-08-22_12h15.27.876,EXNAT_3_fMRI_Psychopy2023.1.3,2023.1.3,75.01026532466325,
,,,,,,,,0,0,0,0,,,#88BA3F,872.9459929466248,244.3563048839569,False,NA,correct rejection,None,2500.0,95,7,3,1,2back_dual_main_no_click,2,text_04,für,,,,OA01,001,no,1500,2000,150,250,500,2024-08-22_12h15.27.876,EXNAT_3_fMRI_Psychopy2023.1.3,2023.1.3,75.01026532466325,
,,,,,,,,0,0,0,0,,,#2AB7EF,875.4510321617126,246.8613440990448,False,NA,correct rejection,None,2500.0,96,7,3,1,2back_dual_main_no_click,2,text_04,ihn,,,,OA01,001,no,1500,2000,150,250,500,2024-08-22_12h15.27.876,EXNAT_3_fMRI_Psychopy2023.1.3,2023.1.3,75.01026532466325,
,,,,,,,,0,0,0,0,,,#88BA3F,877.9568910598755,249.36720299720764,True,NA,miss,None,2500.0,97,7,3,1,2back_dual_main_no_click,2,text_04,ein,,,,OA01,001,no,1500,2000,150,250,500,2024-08-22_12h15.27.876,EXNAT_3_fMRI_Psychopy2023.1.3,2023.1.3,75.01026532466325,
,,,,,,,,0,0,0,0,,,#88BA3F,880.4626309871674,251.8729429244995,False,NA,correct rejection,None,2500.0,98,7,3,1,2back_dual_main_no_click,2,text_04,paar,,,,OA01,001,no,1500,2000,150,250,500,2024-08-22_12h15.27.876,EXNAT_3_fMRI_Psychopy2023.1.3,2023.1.3,75.01026532466325,
,,,,,,,,0,0,0,0,,,#F989A2,882.9690730571747,254.37938499450684,False,NA,correct rejection,None,2500.0,99,7,3,1,2back_dual_main_no_click,2,text_04,Zeichnungen,,,,OA01,001,no,1500,2000,150,250,500,2024-08-22_12h15.27.876,EXNAT_3_fMRI_Psychopy2023.1.3,2023.1.3,75.01026532466325,
,,,,,,,,0,0,0,0,,,#2AB7EF,885.474396944046,256.8847088813782,False,NA,correct rejection,None,2500.0,100,7,3,1,2back_dual_main_no_click,2,text_04,an.,,,,OA01,001,no,1500,2000,150,250,500,2024-08-22_12h15.27.876,EXNAT_3_fMRI_Psychopy2023.1.3,2023.1.3,75.01026532466325,
,,,,,,,,0,0,0,0,,,#2AB7EF,887.9801299571991,259.39044189453125,False,NA,correct rejection,None,2500.0,101,7,3,1,2back_dual_main_no_click,2,text_04,Da,,,,OA01,001,no,1500,2000,150,250,500,2024-08-22_12h15.27.876,EXNAT_3_fMRI_Psychopy2023.1.3,2023.1.3,75.01026532466325,
,,,,,,,,0,0,0,0,,,#88BA3F,890.4857561588287,261.8960680961609,False,NA,correct rejection,None,2500.0,102,7,3,1,2back_dual_main_no_click,2,text_04,er,,,,OA01,001,no,1500,2000,150,250,500,2024-08-22_12h15.27.876,EXNAT_3_fMRI_Psychopy2023.1.3,2023.1.3,75.01026532466325,
,,,,,,,,0,0,0,0,,,#D292F3,892.9924471378326,264.4027590751648,False,NA,correct rejection,None,2500.0,103,7,3,1,2back_dual_main_no_click,2,text_04,kein,,,,OA01,001,no,1500,2000,150,250,500,2024-08-22_12h15.27.876,EXNAT_3_fMRI_Psychopy2023.1.3,2023.1.3,75.01026532466325,
,,,,,,,,0,0,0,0,,,#D292F3,895.4980671405792,266.9083790779114,False,NA,correct rejection,None,2500.0,104,7,3,1,2back_dual_main_no_click,2,text_04,Papier,,,,OA01,001,no,1500,2000,150,250,500,2024-08-22_12h15.27.876,EXNAT_3_fMRI_Psychopy2023.1.3,2023.1.3,75.01026532466325,
,,,,,,,,0,0,0,0,,,#F989A2,898.0033750534058,269.4136869907379,False,NA,correct rejection,None,2500.0,105,7,3,1,2back_dual_main_no_click,2,text_04,zur,,,,OA01,001,no,1500,2000,150,250,500,2024-08-22_12h15.27.876,EXNAT_3_fMRI_Psychopy2023.1.3,2023.1.3,75.01026532466325,
,,,,,,,,0,0,0,0,,,#F989A2,900.5099360942841,271.9202480316162,False,NA,correct rejection,None,2500.0,106,7,3,1,2back_dual_main_no_click,2,text_04,Hand,,,,OA01,001,no,1500,2000,150,250,500,2024-08-22_12h15.27.876,EXNAT_3_fMRI_Psychopy2023.1.3,2023.1.3,75.01026532466325,
,,,,,,,,0,0,0,0,,,#D292F3,903.0152280330658,274.42553997039795,False,NA,correct rejection,None,2500.0,107,7,3,1,2back_dual_main_no_click,2,text_04,"hatte,",,,,OA01,001,no,1500,2000,150,250,500,2024-08-22_12h15.27.876,EXNAT_3_fMRI_Psychopy2023.1.3,2023.1.3,75.01026532466325,
,,,,,,,,0,0,0,0,,,#88BA3F,905.5210430622101,276.93135499954224,False,NA,correct rejection,None,2500.0,108,7,3,1,2back_dual_main_no_click,2,text_04,zeichnete,,,,OA01,001,no,1500,2000,150,250,500,2024-08-22_12h15.27.876,EXNAT_3_fMRI_Psychopy2023.1.3,2023.1.3,75.01026532466325,
,,,,,,,,0,0,0,0,,,#2AB7EF,908.0265500545502,279.4368619918823,False,NA,correct rejection,None,2500.0,109,7,3,1,2back_dual_main_no_click,2,text_04,er,,,,OA01,001,no,1500,2000,150,250,500,2024-08-22_12h15.27.876,EXNAT_3_fMRI_Psychopy2023.1.3,2023.1.3,75.01026532466325,
,,,,,,,,0,0,0,0,,,#F989A2,910.5328850746155,281.94319701194763,False,NA,correct rejection,None,2500.0,110,7,3,1,2back_dual_main_no_click,2,text_04,kurzerhand,,,,OA01,001,no,1500,2000,150,250,500,2024-08-22_12h15.27.876,EXNAT_3_fMRI_Psychopy2023.1.3,2023.1.3,75.01026532466325,
,,,,,,,,0,0,0,0,,,#2AB7EF,913.0379180908203,284.44823002815247,True,NA,miss,None,2500.0,111,7,3,1,2back_dual_main_no_click,2,text_04,auf,,,,OA01,001,no,1500,2000,150,250,500,2024-08-22_12h15.27.876,EXNAT_3_fMRI_Psychopy2023.1.3,2023.1.3,75.01026532466325,
,,,,,,,,0,0,0,0,,,#88BA3F,915.5440490245819,286.95436096191406,False,NA,correct rejection,None,2500.0,112,7,3,1,2back_dual_main_no_click,2,text_04,seiner,,,,OA01,001,no,1500,2000,150,250,500,2024-08-22_12h15.27.876,EXNAT_3_fMRI_Psychopy2023.1.3,2023.1.3,75.01026532466325,
,,,,,,,,0,0,0,0,,,#F989A2,918.0501420497894,289.4604539871216,False,NA,correct rejection,None,2500.0,113,7,3,1,2back_dual_main_no_click,2,text_04,Jacke.,,,,OA01,001,no,1500,2000,150,250,500,2024-08-22_12h15.27.876,EXNAT_3_fMRI_Psychopy2023.1.3,2023.1.3,75.01026532466325,
,,,,,,,,0,0,0,0,,,#D292F3,920.5572209358215,291.9675328731537,False,NA,correct rejection,None,2500.0,114,7,3,1,2back_dual_main_no_click,2,text_04,Beeindruckt,,,,OA01,001,no,1500,2000,150,250,500,2024-08-22_12h15.27.876,EXNAT_3_fMRI_Psychopy2023.1.3,2023.1.3,75.01026532466325,
,,,,,,,,0,0,0,0,,,#2AB7EF,923.0595240592957,294.4698359966278,False,NA,correct rejection,None,2500.0,115,7,3,1,2back_dual_main_no_click,2,text_04,stellte,,,,OA01,001,no,1500,2000,150,250,500,2024-08-22_12h15.27.876,EXNAT_3_fMRI_Psychopy2023.1.3,2023.1.3,75.01026532466325,
,,,,,,,,0,0,0,0,,,#D292F3,925.5658819675446,296.9761939048767,True,1,hit,998.8138675689697,2500.0,116,7,3,1,2back_dual_main_no_click,2,text_04,Kane,,,,OA01,001,no,1500,2000,150,250,500,2024-08-22_12h15.27.876,EXNAT_3_fMRI_Psychopy2023.1.3,2023.1.3,75.01026532466325,
,,,,,,,,0,0,0,0,,,#88BA3F,928.0727920532227,299.4831039905548,False,NA,correct rejection,None,2500.0,117,7,3,1,2back_dual_main_no_click,2,text_04,den,,,,OA01,001,no,1500,2000,150,250,500,2024-08-22_12h15.27.876,EXNAT_3_fMRI_Psychopy2023.1.3,2023.1.3,75.01026532466325,
,,,,,,,,0,0,0,0,,,#F989A2,930.578665971756,301.98897790908813,False,NA,correct rejection,None,2500.0,118,7,3,1,2back_dual_main_no_click,2,text_04,Jungen,,,,OA01,001,no,1500,2000,150,250,500,2024-08-22_12h15.27.876,EXNAT_3_fMRI_Psychopy2023.1.3,2023.1.3,75.01026532466325,
,,,,,,,,0,0,0,0,,,#88BA3F,933.08451795578,304.4948298931122,True,NA,miss,None,2500.0,119,7,3,1,2back_dual_main_no_click,2,text_04,an.,,,,OA01,001,no,1500,2000,150,250,500,2024-08-22_12h15.27.876,EXNAT_3_fMRI_Psychopy2023.1.3,2023.1.3,75.01026532466325,
,,,,,,,,0,0,0,0,,,#D292F3,935.5902090072632,307.00052094459534,False,NA,correct rejection,None,2500.0,120,7,3,1,2back_dual_main_no_click,2,text_04,Bereits,,,,OA01,001,no,1500,2000,150,250,500,2024-08-22_12h15.27.876,EXNAT_3_fMRI_Psychopy2023.1.3,2023.1.3,75.01026532466325,
,,,,,,,,0,0,0,0,,,#88BA3F,938.0958430767059,309.5061550140381,True,NA,miss,None,2500.0,121,7,3,1,2back_dual_main_no_click,2,text_04,ab,,,,OA01,001,no,1500,2000,150,250,500,2024-08-22_12h15.27.876,EXNAT_3_fMRI_Psychopy2023.1.3,2023.1.3,75.01026532466325,
,,,,,,,,0,0,0,0,,,#D292F3,940.6016459465027,312.01195788383484,True,NA,miss,None,2500.0,122,7,3,1,2back_dual_main_no_click,2,text_04,der,,,,OA01,001,no,1500,2000,150,250,500,2024-08-22_12h15.27.876,EXNAT_3_fMRI_Psychopy2023.1.3,2023.1.3,75.01026532466325,
,,,,,,,,0,0,0,0,,,#2AB7EF,943.1078059673309,314.5181179046631,False,NA,correct rejection,None,2500.0,123,7,3,1,2back_dual_main_no_click,2,text_04,dritten,,,,OA01,001,no,1500,2000,150,250,500,2024-08-22_12h15.27.876,EXNAT_3_fMRI_Psychopy2023.1.3,2023.1.3,75.01026532466325,
,,,,,,,,0,0,0,0,,,#88BA3F,945.6135420799255,317.0238540172577,False,NA,correct rejection,None,2500.0,124,7,3,1,2back_dual_main_no_click,2,text_04,Ausgabe,,,,OA01,001,no,1500,2000,150,250,500,2024-08-22_12h15.27.876,EXNAT_3_fMRI_Psychopy2023.1.3,2023.1.3,75.01026532466325,
,,,,,,,,0,0,0,0,,,#F989A2,948.1190299987793,319.52934193611145,False,NA,correct rejection,None,2500.0,125,7,3,1,2back_dual_main_no_click,2,text_04,der,,,,OA01,001,no,1500,2000,150,250,500,2024-08-22_12h15.27.876,EXNAT_3_fMRI_Psychopy2023.1.3,2023.1.3,75.01026532466325,
,,,,,,,,0,0,0,0,,,#2AB7EF,950.6249959468842,322.0353078842163,False,NA,correct rejection,None,2500.0,126,7,3,1,2back_dual_main_no_click,2,text_04,Batman-Comics,,,,OA01,001,no,1500,2000,150,250,500,2024-08-22_12h15.27.876,EXNAT_3_fMRI_Psychopy2023.1.3,2023.1.3,75.01026532466325,
,,,,,,,,0,0,0,0,,,#D292F3,953.1305899620056,324.54090189933777,False,NA,correct rejection,None,2500.0,127,7,3,1,2back_dual_main_no_click,2,text_04,war,,,,OA01,001,no,1500,2000,150,250,500,2024-08-22_12h15.27.876,EXNAT_3_fMRI_Psychopy2023.1.3,2023.1.3,75.01026532466325,
,,,,,,,,0,0,0,0,,,#D292F3,955.6362590789795,327.04657101631165,False,NA,correct rejection,None,2500.0,128,7,3,1,2back_dual_main_no_click,2,text_04,er,,,,OA01,001,no,1500,2000,150,250,500,2024-08-22_12h15.27.876,EXNAT_3_fMRI_Psychopy2023.1.3,2023.1.3,75.01026532466325,
,,,,,,,,0,0,0,0,,,#88BA3F,958.1422190666199,329.552531003952,False,NA,correct rejection,None,2500.0,129,7,3,1,2back_dual_main_no_click,2,text_04,der,,,,OA01,001,no,1500,2000,150,250,500,2024-08-22_12h15.27.876,EXNAT_3_fMRI_Psychopy2023.1.3,2023.1.3,75.01026532466325,
,,,,,,,,0,0,0,0,,,#F989A2,960.6484739780426,332.05878591537476,False,NA,correct rejection,None,2500.0,130,7,3,1,2back_dual_main_no_click,2,text_04,Hauptzeichner,,,,OA01,001,no,1500,2000,150,250,500,2024-08-22_12h15.27.876,EXNAT_3_fMRI_Psychopy2023.1.3,2023.1.3,75.01026532466325,
,,,,,,,,0,0,0,0,,,#2AB7EF,963.1541471481323,334.5644590854645,False,NA,correct rejection,None,2500.0,131,7,3,1,2back_dual_main_no_click,2,text_04,der,,,,OA01,001,no,1500,2000,150,250,500,2024-08-22_12h15.27.876,EXNAT_3_fMRI_Psychopy2023.1.3,2023.1.3,75.01026532466325,
