loop_run1_single_reading.thisRepN,loop_run1_single_reading.thisTrialN,loop_run1_single_reading.thisN,loop_run1_single_reading.thisIndex,loop_run2_single_nback.thisRepN,loop_run2_single_nback.thisTrialN,loop_run2_single_nback.thisN,loop_run2_single_nback.thisIndex,loop_dual_task_blocks.thisRepN,loop_dual_task_blocks.thisTrialN,loop_dual_task_blocks.thisN,loop_dual_task_blocks.thisIndex,TriggerCount,TriggerTime,colour,global_onset_time,onset_time_rel2trigger,target,nback_response,nback_RT,duration,text_nr,trial_nr,block_nr_exp,run_nr,block_nr_run,block_name,n-back_level,word,question,button_pressed,chosen_ans,ans_correct,participant,session,testing_mode,RT_per_rectangle_oneback_single,RT_per_rectangle_twoback_single,RT_per_letter_baseline,RT_per_letter_oneback_dual,RT_per_letter_twoback_dual,date,expName,psychopyVersion,frameRate,
0,0,0,0,,,,,,,,,1,758.747307062149,#2AB7EF,769.5991489887238,10.851841926574707,None,None,None,506.3116699452698,text_01,1,1,1,1,Reading_Baseline_main_no_click,None,Beim,,,,,OA05,001,no,1500,2000,94,349,422,2024-08-28_12h06.09.732,EXNAT_3_fMRI_Psychopy2023.1.3,2023.1.3,59.99808317586289,
0,0,0,0,,,,,,,,,,,#F989A2,770.1164660453796,11.36915898323059,None,None,None,558.9155540111994,text_01,2,1,1,1,Reading_Baseline_main_no_click,None,Anblick,,,,,OA05,001,no,1500,2000,94,349,422,2024-08-28_12h06.09.732,EXNAT_3_fMRI_Psychopy2023.1.3,2023.1.3,59.99808317586289,
0,0,0,0,,,,,,,,,,,#D292F3,770.6824641227722,11.935157060623169,None,None,None,479.2695551348023,text_01,3,1,1,1,Reading_Baseline_main_no_click,None,der,,,,,OA05,001,no,1500,2000,94,349,422,2024-08-28_12h06.09.732,EXNAT_3_fMRI_Psychopy2023.1.3,2023.1.3,59.99808317586289,
0,0,0,0,,,,,,,,,,,#D292F3,771.1653180122375,12.418010950088501,None,None,None,527.2871637688054,text_01,4,1,1,1,Reading_Baseline_main_no_click,None,Tiere,,,,,OA05,001,no,1500,2000,94,349,422,2024-08-28_12h06.09.732,EXNAT_3_fMRI_Psychopy2023.1.3,2023.1.3,59.99808317586289,
0,0,0,0,,,,,,,,,,,#88BA3F,771.6981601715088,12.950853109359741,None,None,None,506.3116699452698,text_01,5,1,1,1,Reading_Baseline_main_no_click,None,wird,,,,,OA05,001,no,1500,2000,94,349,422,2024-08-28_12h06.09.732,EXNAT_3_fMRI_Psychopy2023.1.3,2023.1.3,59.99808317586289,
0,0,0,0,,,,,,,,,,,#D292F3,772.2151410579681,13.467833995819092,None,None,None,527.2871637688054,text_01,6,1,1,1,Reading_Baseline_main_no_click,None,"klar,",,,,,OA05,001,no,1500,2000,94,349,422,2024-08-28_12h06.09.732,EXNAT_3_fMRI_Psychopy2023.1.3,2023.1.3,59.99808317586289,
0,0,0,0,,,,,,,,,,,#F989A2,772.7486929893494,14.001385927200317,None,None,None,527.2871637688054,text_01,7,1,1,1,Reading_Baseline_main_no_click,None,warum,,,,,OA05,001,no,1500,2000,94,349,422,2024-08-28_12h06.09.732,EXNAT_3_fMRI_Psychopy2023.1.3,2023.1.3,59.99808317586289,
0,0,0,0,,,,,,,,,,,#2AB7EF,773.2811980247498,14.533890962600708,None,None,None,479.2695551348023,text_01,8,1,1,1,Reading_Baseline_main_no_click,None,die,,,,,OA05,001,no,1500,2000,94,349,422,2024-08-28_12h06.09.732,EXNAT_3_fMRI_Psychopy2023.1.3,2023.1.3,59.99808317586289,
0,0,0,0,,,,,,,,,,,#88BA3F,773.7651159763336,15.01780891418457,None,None,None,571.4675049179045,text_01,9,1,1,1,Reading_Baseline_main_no_click,None,Seeleute,,,,,OA05,001,no,1500,2000,94,349,422,2024-08-28_12h06.09.732,EXNAT_3_fMRI_Psychopy2023.1.3,2023.1.3,59.99808317586289,
0,0,0,0,,,,,,,,,,,#88BA3F,774.3484060764313,15.601099014282227,None,None,None,601.4021556430469,text_01,10,1,1,1,Reading_Baseline_main_no_click,None,vergangener,,,,,OA05,001,no,1500,2000,94,349,422,2024-08-28_12h06.09.732,EXNAT_3_fMRI_Psychopy2023.1.3,2023.1.3,59.99808317586289,
0,0,0,0,,,,,,,,,,,#F989A2,774.9649441242218,16.217637062072754,None,None,None,609.581225080072,text_01,11,1,1,1,Reading_Baseline_main_no_click,None,Jahrhunderte,,,,,OA05,001,no,1500,2000,94,349,422,2024-08-28_12h06.09.732,EXNAT_3_fMRI_Psychopy2023.1.3,2023.1.3,59.99808317586289,
0,0,0,0,,,,,,,,,,,#2AB7EF,775.5812320709229,16.833925008773804,None,None,None,527.2871637688054,text_01,12,1,1,1,Reading_Baseline_main_no_click,None,Angst,,,,,OA05,001,no,1500,2000,94,349,422,2024-08-28_12h06.09.732,EXNAT_3_fMRI_Psychopy2023.1.3,2023.1.3,59.99808317586289,
0,0,0,0,,,,,,,,,,,#D292F3,776.1144330501556,17.367125988006592,None,None,None,479.2695551348023,text_01,13,1,1,1,Reading_Baseline_main_no_click,None,vor,,,,,OA05,001,no,1500,2000,94,349,422,2024-08-28_12h06.09.732,EXNAT_3_fMRI_Psychopy2023.1.3,2023.1.3,59.99808317586289,
0,0,0,0,,,,,,,,,,,#F989A2,776.5975461006165,17.850239038467407,None,None,None,617.1052396013845,text_01,14,1,1,1,Reading_Baseline_main_no_click,None,Seeungeheuern,,,,,OA05,001,no,1500,2000,94,349,422,2024-08-28_12h06.09.732,EXNAT_3_fMRI_Psychopy2023.1.3,2023.1.3,59.99808317586289,
0,0,0,0,,,,,,,,,,,#88BA3F,777.2312121391296,18.48390507698059,None,None,None,558.9155540111994,text_01,15,1,1,1,Reading_Baseline_main_no_click,None,hatten.,,,,,OA05,001,no,1500,2000,94,349,422,2024-08-28_12h06.09.732,EXNAT_3_fMRI_Psychopy2023.1.3,2023.1.3,59.99808317586289,
0,0,0,0,,,,,,,,,,,#2AB7EF,777.797767162323,19.05046010017395,None,None,None,592.4429987414403,text_01,16,1,1,1,Reading_Baseline_main_no_click,None,Meterlange,,,,,OA05,001,no,1500,2000,94,349,422,2024-08-28_12h06.09.732,EXNAT_3_fMRI_Psychopy2023.1.3,2023.1.3,59.99808317586289,
0,0,0,0,,,,,,,,,,,#F989A2,778.3976299762726,19.650322914123535,None,None,None,582.5391102696046,text_01,17,1,1,1,Reading_Baseline_main_no_click,None,"Fangarme,",,,,,OA05,001,no,1500,2000,94,349,422,2024-08-28_12h06.09.732,EXNAT_3_fMRI_Psychopy2023.1.3,2023.1.3,59.99808317586289,
0,0,0,0,,,,,,,,,,,#2AB7EF,778.9978561401367,20.25054907798767,None,None,None,544.4253901074371,text_01,18,1,1,1,Reading_Baseline_main_no_click,None,spitze,,,,,OA05,001,no,1500,2000,94,349,422,2024-08-28_12h06.09.732,EXNAT_3_fMRI_Psychopy2023.1.3,2023.1.3,59.99808317586289,
0,0,0,0,,,,,,,,,,,#88BA3F,779.5475080013275,20.800200939178467,None,None,None,544.4253901074371,text_01,19,1,1,1,Reading_Baseline_main_no_click,None,Mäuler,,,,,OA05,001,no,1500,2000,94,349,422,2024-08-28_12h06.09.732,EXNAT_3_fMRI_Psychopy2023.1.3,2023.1.3,59.99808317586289,
0,0,0,0,,,,,,,,,,,#F989A2,780.096922159195,21.3496150970459,None,None,None,479.2695551348023,text_01,20,1,1,1,Reading_Baseline_main_no_click,None,und,,,,,OA05,001,no,1500,2000,94,349,422,2024-08-28_12h06.09.732,EXNAT_3_fMRI_Psychopy2023.1.3,2023.1.3,59.99808317586289,
0,0,0,0,,,,,,,,,,,#D292F3,780.580393075943,21.833086013793945,None,None,None,558.9155540111994,text_01,21,1,1,1,Reading_Baseline_main_no_click,None,riesige,,,,,OA05,001,no,1500,2000,94,349,422,2024-08-28_12h06.09.732,EXNAT_3_fMRI_Psychopy2023.1.3,2023.1.3,59.99808317586289,
0,0,0,0,,,,,,,,,,,#2AB7EF,781.1469640731812,22.399657011032104,None,None,None,527.2871637688054,text_01,22,1,1,1,Reading_Baseline_main_no_click,None,Augen,,,,,OA05,001,no,1500,2000,94,349,422,2024-08-28_12h06.09.732,EXNAT_3_fMRI_Psychopy2023.1.3,2023.1.3,59.99808317586289,
0,0,0,0,,,,,,,,,,,#88BA3F,781.6805241107941,22.93321704864502,None,None,None,582.5391102696046,text_01,23,1,1,1,Reading_Baseline_main_no_click,None,verleihen,,,,,OA05,001,no,1500,2000,94,349,422,2024-08-28_12h06.09.732,EXNAT_3_fMRI_Psychopy2023.1.3,2023.1.3,59.99808317586289,
0,0,0,0,,,,,,,,,,,#D292F3,782.2800650596619,23.532757997512817,None,None,None,479.2695551348023,text_01,24,1,1,1,Reading_Baseline_main_no_click,None,den,,,,,OA05,001,no,1500,2000,94,349,422,2024-08-28_12h06.09.732,EXNAT_3_fMRI_Psychopy2023.1.3,2023.1.3,59.99808317586289,
0,0,0,0,,,,,,,,,,,#88BA3F,782.7638621330261,24.016555070877075,None,None,None,544.4253901074371,text_01,25,1,1,1,Reading_Baseline_main_no_click,None,großen,,,,,OA05,001,no,1500,2000,94,349,422,2024-08-28_12h06.09.732,EXNAT_3_fMRI_Psychopy2023.1.3,2023.1.3,59.99808317586289,
0,0,0,0,,,,,,,,,,,#D292F3,783.3140621185303,24.566755056381226,None,None,None,571.4675049179045,text_01,26,1,1,1,Reading_Baseline_main_no_click,None,Kalmaren,,,,,OA05,001,no,1500,2000,94,349,422,2024-08-28_12h06.09.732,EXNAT_3_fMRI_Psychopy2023.1.3,2023.1.3,59.99808317586289,
0,0,0,0,,,,,,,,,,,#F989A2,783.8967261314392,25.14941906929016,None,None,None,479.2695551348023,text_01,27,1,1,1,Reading_Baseline_main_no_click,None,ein,,,,,OA05,001,no,1500,2000,94,349,422,2024-08-28_12h06.09.732,EXNAT_3_fMRI_Psychopy2023.1.3,2023.1.3,59.99808317586289,
0,0,0,0,,,,,,,,,,,#2AB7EF,784.3808560371399,25.633548974990845,None,None,None,636.6233398905395,text_01,28,1,1,1,Reading_Baseline_main_no_click,None,furchterregendes,,,,,OA05,001,no,1500,2000,94,349,422,2024-08-28_12h06.09.732,EXNAT_3_fMRI_Psychopy2023.1.3,2023.1.3,59.99808317586289,
0,0,0,0,,,,,,,,,,,#88BA3F,785.0302600860596,26.282953023910522,None,None,None,582.5391102696046,text_01,29,1,1,1,Reading_Baseline_main_no_click,None,Aussehen.,,,,,OA05,001,no,1500,2000,94,349,422,2024-08-28_12h06.09.732,EXNAT_3_fMRI_Psychopy2023.1.3,2023.1.3,59.99808317586289,
0,0,0,0,,,,,,,,,,,#2AB7EF,785.6301641464233,26.882857084274292,None,None,None,479.2695551348023,text_01,30,1,1,1,Reading_Baseline_main_no_click,None,Vor,,,,,OA05,001,no,1500,2000,94,349,422,2024-08-28_12h06.09.732,EXNAT_3_fMRI_Psychopy2023.1.3,2023.1.3,59.99808317586289,
0,0,0,0,,,,,,,,,,,#2AB7EF,786.1130859851837,27.365778923034668,None,None,None,479.2695551348023,text_01,31,1,1,1,Reading_Baseline_main_no_click,None,der,,,,,OA05,001,no,1500,2000,94,349,422,2024-08-28_12h06.09.732,EXNAT_3_fMRI_Psychopy2023.1.3,2023.1.3,59.99808317586289,
0,0,0,0,,,,,,,,,,,#F989A2,786.5970611572266,27.849754095077515,None,None,None,527.2871637688054,text_01,32,1,1,1,Reading_Baseline_main_no_click,None,Küste,,,,,OA05,001,no,1500,2000,94,349,422,2024-08-28_12h06.09.732,EXNAT_3_fMRI_Psychopy2023.1.3,2023.1.3,59.99808317586289,
0,0,0,0,,,,,,,,,,,#D292F3,787.1301491260529,28.38284206390381,None,None,None,544.4253901074371,text_01,33,1,1,1,Reading_Baseline_main_no_click,None,Chiles,,,,,OA05,001,no,1500,2000,94,349,422,2024-08-28_12h06.09.732,EXNAT_3_fMRI_Psychopy2023.1.3,2023.1.3,59.99808317586289,
0,0,0,0,,,,,,,,,,,#F989A2,787.679605960846,28.9322988986969,None,None,None,506.3116699452698,text_01,34,1,1,1,Reading_Baseline_main_no_click,None,sind,,,,,OA05,001,no,1500,2000,94,349,422,2024-08-28_12h06.09.732,EXNAT_3_fMRI_Psychopy2023.1.3,2023.1.3,59.99808317586289,
0,0,0,0,,,,,,,,,,,#D292F3,788.1962010860443,29.448894023895264,None,None,None,479.2695551348023,text_01,35,1,1,1,Reading_Baseline_main_no_click,None,sie,,,,,OA05,001,no,1500,2000,94,349,422,2024-08-28_12h06.09.732,EXNAT_3_fMRI_Psychopy2023.1.3,2023.1.3,59.99808317586289,
0,0,0,0,,,,,,,,,,,#88BA3F,788.6798350811005,29.932528018951416,None,None,None,558.9155540111994,text_01,36,1,1,1,Reading_Baseline_main_no_click,None,aktuell,,,,,OA05,001,no,1500,2000,94,349,422,2024-08-28_12h06.09.732,EXNAT_3_fMRI_Psychopy2023.1.3,2023.1.3,59.99808317586289,
0,0,0,0,,,,,,,,,,,#F989A2,789.2462930679321,30.49898600578308,None,None,None,470.0,text_01,37,1,1,1,Reading_Baseline_main_no_click,None,in,,,,,OA05,001,no,1500,2000,94,349,422,2024-08-28_12h06.09.732,EXNAT_3_fMRI_Psychopy2023.1.3,2023.1.3,59.99808317586289,
0,0,0,0,,,,,,,,,,,#D292F3,789.7297179698944,30.98241090774536,None,None,None,544.4253901074371,text_01,38,1,1,1,Reading_Baseline_main_no_click,None,Massen,,,,,OA05,001,no,1500,2000,94,349,422,2024-08-28_12h06.09.732,EXNAT_3_fMRI_Psychopy2023.1.3,2023.1.3,59.99808317586289,
0,0,0,0,,,,,,,,,,,#D292F3,790.2795269489288,31.532219886779785,None,None,None,470.0,text_01,39,1,1,1,Reading_Baseline_main_no_click,None,zu,,,,,OA05,001,no,1500,2000,94,349,422,2024-08-28_12h06.09.732,EXNAT_3_fMRI_Psychopy2023.1.3,2023.1.3,59.99808317586289,
0,0,0,0,,,,,,,,,,,#F989A2,790.7629599571228,32.015652894973755,None,None,None,544.4253901074371,text_01,40,1,1,1,Reading_Baseline_main_no_click,None,sehen.,,,,,OA05,001,no,1500,2000,94,349,422,2024-08-28_12h06.09.732,EXNAT_3_fMRI_Psychopy2023.1.3,2023.1.3,59.99808317586289,
0,0,0,0,,,,,,,,,,,#2AB7EF,791.3134529590607,32.56614589691162,None,None,None,571.4675049179045,text_01,41,1,1,1,Reading_Baseline_main_no_click,None,Hunderte,,,,,OA05,001,no,1500,2000,94,349,422,2024-08-28_12h06.09.732,EXNAT_3_fMRI_Psychopy2023.1.3,2023.1.3,59.99808317586289,
0,0,0,0,,,,,,,,,,,#88BA3F,791.8960530757904,33.14874601364136,None,None,None,479.2695551348023,text_01,42,1,1,1,Reading_Baseline_main_no_click,None,von,,,,,OA05,001,no,1500,2000,94,349,422,2024-08-28_12h06.09.732,EXNAT_3_fMRI_Psychopy2023.1.3,2023.1.3,59.99808317586289,
0,0,0,0,,,,,,,,,,,#2AB7EF,792.3795070648193,33.63220000267029,None,None,None,571.4675049179045,text_01,43,1,1,1,Reading_Baseline_main_no_click,None,riesigen,,,,,OA05,001,no,1500,2000,94,349,422,2024-08-28_12h06.09.732,EXNAT_3_fMRI_Psychopy2023.1.3,2023.1.3,59.99808317586289,
0,0,0,0,,,,,,,,,,,#88BA3F,792.9628989696503,34.21559190750122,None,None,None,617.1052396013845,text_01,44,1,1,1,Reading_Baseline_main_no_click,None,Tintenfischen,,,,,OA05,001,no,1500,2000,94,349,422,2024-08-28_12h06.09.732,EXNAT_3_fMRI_Psychopy2023.1.3,2023.1.3,59.99808317586289,
0,0,0,0,,,,,,,,,,,#D292F3,793.5961470603943,34.84883999824524,None,None,None,582.5391102696046,text_01,45,1,1,1,Reading_Baseline_main_no_click,None,schwimmen,,,,,OA05,001,no,1500,2000,94,349,422,2024-08-28_12h06.09.732,EXNAT_3_fMRI_Psychopy2023.1.3,2023.1.3,59.99808317586289,
0,0,0,0,,,,,,,,,,,#F989A2,794.1957859992981,35.44847893714905,None,None,None,470.0,text_01,46,1,1,1,Reading_Baseline_main_no_click,None,in,,,,,OA05,001,no,1500,2000,94,349,422,2024-08-28_12h06.09.732,EXNAT_3_fMRI_Psychopy2023.1.3,2023.1.3,59.99808317586289,
0,0,0,0,,,,,,,,,,,#2AB7EF,794.6791319847107,35.931824922561646,None,None,None,479.2695551348023,text_01,47,1,1,1,Reading_Baseline_main_no_click,None,den,,,,,OA05,001,no,1500,2000,94,349,422,2024-08-28_12h06.09.732,EXNAT_3_fMRI_Psychopy2023.1.3,2023.1.3,59.99808317586289,
0,0,0,0,,,,,,,,,,,#88BA3F,795.1626319885254,36.41532492637634,None,None,None,558.9155540111994,text_01,48,1,1,1,Reading_Baseline_main_no_click,None,flachen,,,,,OA05,001,no,1500,2000,94,349,422,2024-08-28_12h06.09.732,EXNAT_3_fMRI_Psychopy2023.1.3,2023.1.3,59.99808317586289,
0,0,0,0,,,,,,,,,,,#D292F3,795.729658126831,36.98235106468201,None,None,None,582.5391102696046,text_01,49,1,1,1,Reading_Baseline_main_no_click,None,Gewässern,,,,,OA05,001,no,1500,2000,94,349,422,2024-08-28_12h06.09.732,EXNAT_3_fMRI_Psychopy2023.1.3,2023.1.3,59.99808317586289,
0,0,0,0,,,,,,,,,,,#F989A2,796.3291661739349,37.58185911178589,None,None,None,479.2695551348023,text_01,50,1,1,1,Reading_Baseline_main_no_click,None,und,,,,,OA05,001,no,1500,2000,94,349,422,2024-08-28_12h06.09.732,EXNAT_3_fMRI_Psychopy2023.1.3,2023.1.3,59.99808317586289,
0,0,0,0,,,,,,,,,,,#88BA3F,796.8124079704285,38.06510090827942,None,None,None,558.9155540111994,text_01,51,1,1,1,Reading_Baseline_main_no_click,None,fressen,,,,,OA05,001,no,1500,2000,94,349,422,2024-08-28_12h06.09.732,EXNAT_3_fMRI_Psychopy2023.1.3,2023.1.3,59.99808317586289,
0,0,0,0,,,,,,,,,,,#F989A2,797.3788840770721,38.631577014923096,None,None,None,506.3116699452698,text_01,52,1,1,1,Reading_Baseline_main_no_click,None,dort,,,,,OA05,001,no,1500,2000,94,349,422,2024-08-28_12h06.09.732,EXNAT_3_fMRI_Psychopy2023.1.3,2023.1.3,59.99808317586289,
0,0,0,0,,,,,,,,,,,#2AB7EF,797.8954441547394,39.14813709259033,None,None,None,479.2695551348023,text_01,53,1,1,1,Reading_Baseline_main_no_click,None,die,,,,,OA05,001,no,1500,2000,94,349,422,2024-08-28_12h06.09.732,EXNAT_3_fMRI_Psychopy2023.1.3,2023.1.3,59.99808317586289,
0,0,0,0,,,,,,,,,,,#D292F3,798.3790819644928,39.63177490234375,None,None,None,558.9155540111994,text_01,54,1,1,1,Reading_Baseline_main_no_click,None,Fische.,,,,,OA05,001,no,1500,2000,94,349,422,2024-08-28_12h06.09.732,EXNAT_3_fMRI_Psychopy2023.1.3,2023.1.3,59.99808317586289,
0,0,0,0,,,,,,,,,,,#2AB7EF,798.9460899829865,40.1987829208374,None,None,None,617.1052396013845,text_01,55,1,1,1,Reading_Baseline_main_no_click,None,Normalerweise,,,,,OA05,001,no,1500,2000,94,349,422,2024-08-28_12h06.09.732,EXNAT_3_fMRI_Psychopy2023.1.3,2023.1.3,59.99808317586289,
0,0,0,0,,,,,,,,,,,#F989A2,799.5786981582642,40.83139109611511,None,None,None,506.3116699452698,text_01,56,1,1,1,Reading_Baseline_main_no_click,None,sind,,,,,OA05,001,no,1500,2000,94,349,422,2024-08-28_12h06.09.732,EXNAT_3_fMRI_Psychopy2023.1.3,2023.1.3,59.99808317586289,
0,0,0,0,,,,,,,,,,,#88BA3F,800.0952441692352,41.34793710708618,None,None,None,479.2695551348023,text_01,57,1,1,1,Reading_Baseline_main_no_click,None,die,,,,,OA05,001,no,1500,2000,94,349,422,2024-08-28_12h06.09.732,EXNAT_3_fMRI_Psychopy2023.1.3,2023.1.3,59.99808317586289,
0,0,0,0,,,,,,,,,,,#F989A2,800.5787770748138,41.831470012664795,None,None,None,544.4253901074371,text_01,58,1,1,1,Reading_Baseline_main_no_click,None,großen,,,,,OA05,001,no,1500,2000,94,349,422,2024-08-28_12h06.09.732,EXNAT_3_fMRI_Psychopy2023.1.3,2023.1.3,59.99808317586289,
0,0,0,0,,,,,,,,,,,#88BA3F,801.1288809776306,42.38157391548157,None,None,None,558.9155540111994,text_01,59,1,1,1,Reading_Baseline_main_no_click,None,Kalmare,,,,,OA05,001,no,1500,2000,94,349,422,2024-08-28_12h06.09.732,EXNAT_3_fMRI_Psychopy2023.1.3,2023.1.3,59.99808317586289,
0,0,0,0,,,,,,,,,,,#2AB7EF,801.6951031684875,42.9477961063385,None,None,None,479.2695551348023,text_01,60,1,1,1,Reading_Baseline_main_no_click,None,nur,,,,,OA05,001,no,1500,2000,94,349,422,2024-08-28_12h06.09.732,EXNAT_3_fMRI_Psychopy2023.1.3,2023.1.3,59.99808317586289,
0,0,0,0,,,,,,,,,,,#D292F3,802.1785800457001,43.431272983551025,None,None,None,544.4253901074371,text_01,61,1,1,1,Reading_Baseline_main_no_click,None,schwer,,,,,OA05,001,no,1500,2000,94,349,422,2024-08-28_12h06.09.732,EXNAT_3_fMRI_Psychopy2023.1.3,2023.1.3,59.99808317586289,
0,0,0,0,,,,,,,,,,,#2AB7EF,802.7283940315247,43.98108696937561,None,None,None,470.0,text_01,62,1,1,1,Reading_Baseline_main_no_click,None,zu,,,,,OA05,001,no,1500,2000,94,349,422,2024-08-28_12h06.09.732,EXNAT_3_fMRI_Psychopy2023.1.3,2023.1.3,59.99808317586289,
0,0,0,0,,,,,,,,,,,#2AB7EF,803.2119419574738,44.46463489532471,None,None,None,601.4021556430469,text_01,63,1,1,1,Reading_Baseline_main_no_click,None,beobachten.,,,,,OA05,001,no,1500,2000,94,349,422,2024-08-28_12h06.09.732,EXNAT_3_fMRI_Psychopy2023.1.3,2023.1.3,59.99808317586289,
0,0,0,0,,,,,,,,,,,#F989A2,803.8283970355988,45.08108997344971,None,None,None,479.2695551348023,text_01,64,1,1,1,Reading_Baseline_main_no_click,None,Sie,,,,,OA05,001,no,1500,2000,94,349,422,2024-08-28_12h06.09.732,EXNAT_3_fMRI_Psychopy2023.1.3,2023.1.3,59.99808317586289,
0,0,0,0,,,,,,,,,,,#88BA3F,804.3117620944977,45.56445503234863,None,None,None,527.2871637688054,text_01,65,1,1,1,Reading_Baseline_main_no_click,None,leben,,,,,OA05,001,no,1500,2000,94,349,422,2024-08-28_12h06.09.732,EXNAT_3_fMRI_Psychopy2023.1.3,2023.1.3,59.99808317586289,
0,0,0,0,,,,,,,,,,,#F989A2,804.8452200889587,46.09791302680969,None,None,None,592.4429987414403,text_01,66,1,1,1,Reading_Baseline_main_no_click,None,eigentlich,,,,,OA05,001,no,1500,2000,94,349,422,2024-08-28_12h06.09.732,EXNAT_3_fMRI_Psychopy2023.1.3,2023.1.3,59.99808317586289,
0,0,0,0,,,,,,,,,,,#88BA3F,805.4449441432953,46.69763708114624,None,None,None,470.0,text_01,67,1,1,1,Reading_Baseline_main_no_click,None,im,,,,,OA05,001,no,1500,2000,94,349,422,2024-08-28_12h06.09.732,EXNAT_3_fMRI_Psychopy2023.1.3,2023.1.3,59.99808317586289,
0,0,0,0,,,,,,,,,,,#D292F3,805.9285891056061,47.18128204345703,None,None,None,558.9155540111994,text_01,68,1,1,1,Reading_Baseline_main_no_click,None,offenen,,,,,OA05,001,no,1500,2000,94,349,422,2024-08-28_12h06.09.732,EXNAT_3_fMRI_Psychopy2023.1.3,2023.1.3,59.99808317586289,
0,0,0,0,,,,,,,,,,,#88BA3F,806.4949610233307,47.74765396118164,None,None,None,527.2871637688054,text_01,69,1,1,1,Reading_Baseline_main_no_click,None,Meer.,,,,,OA05,001,no,1500,2000,94,349,422,2024-08-28_12h06.09.732,EXNAT_3_fMRI_Psychopy2023.1.3,2023.1.3,59.99808317586289,
0,0,0,0,,,,,,,,,,,#F989A2,807.0280890464783,48.280781984329224,None,None,None,479.2695551348023,text_01,70,1,1,1,Reading_Baseline_main_no_click,None,Nur,,,,,OA05,001,no,1500,2000,94,349,422,2024-08-28_12h06.09.732,EXNAT_3_fMRI_Psychopy2023.1.3,2023.1.3,59.99808317586289,
0,0,0,0,,,,,,,,,,,#D292F3,807.5115849971771,48.764277935028076,None,None,None,544.4253901074371,text_01,71,1,1,1,Reading_Baseline_main_no_click,None,nachts,,,,,OA05,001,no,1500,2000,94,349,422,2024-08-28_12h06.09.732,EXNAT_3_fMRI_Psychopy2023.1.3,2023.1.3,59.99808317586289,
0,0,0,0,,,,,,,,,,,#2AB7EF,808.0615441799164,49.314237117767334,None,None,None,544.4253901074371,text_01,72,1,1,1,Reading_Baseline_main_no_click,None,kommen,,,,,OA05,001,no,1500,2000,94,349,422,2024-08-28_12h06.09.732,EXNAT_3_fMRI_Psychopy2023.1.3,2023.1.3,59.99808317586289,
0,0,0,0,,,,,,,,,,,#88BA3F,808.6112999916077,49.86399292945862,None,None,None,479.2695551348023,text_01,73,1,1,1,Reading_Baseline_main_no_click,None,sie,,,,,OA05,001,no,1500,2000,94,349,422,2024-08-28_12h06.09.732,EXNAT_3_fMRI_Psychopy2023.1.3,2023.1.3,59.99808317586289,
0,0,0,0,,,,,,,,,,,#F989A2,809.094465970993,50.347158908843994,None,None,None,470.0,text_01,74,1,1,1,Reading_Baseline_main_no_click,None,an,,,,,OA05,001,no,1500,2000,94,349,422,2024-08-28_12h06.09.732,EXNAT_3_fMRI_Psychopy2023.1.3,2023.1.3,59.99808317586289,
0,0,0,0,,,,,,,,,,,#D292F3,809.577721118927,50.830414056777954,None,None,None,479.2695551348023,text_01,75,1,1,1,Reading_Baseline_main_no_click,None,die,,,,,OA05,001,no,1500,2000,94,349,422,2024-08-28_12h06.09.732,EXNAT_3_fMRI_Psychopy2023.1.3,2023.1.3,59.99808317586289,
0,0,0,0,,,,,,,,,,,#88BA3F,810.0615890026093,51.314281940460205,None,None,None,601.4021556430469,text_01,76,1,1,1,Reading_Baseline_main_no_click,None,"Oberfläche,",,,,,OA05,001,no,1500,2000,94,349,422,2024-08-28_12h06.09.732,EXNAT_3_fMRI_Psychopy2023.1.3,2023.1.3,59.99808317586289,
0,0,0,0,,,,,,,,,,,#2AB7EF,810.6778011322021,51.9304940700531,None,None,None,470.0,text_01,77,1,1,1,Reading_Baseline_main_no_click,None,um,,,,,OA05,001,no,1500,2000,94,349,422,2024-08-28_12h06.09.732,EXNAT_3_fMRI_Psychopy2023.1.3,2023.1.3,59.99808317586289,
0,0,0,0,,,,,,,,,,,#F989A2,811.1610059738159,52.41369891166687,None,None,None,544.4253901074371,text_01,78,1,1,1,Reading_Baseline_main_no_click,None,kleine,,,,,OA05,001,no,1500,2000,94,349,422,2024-08-28_12h06.09.732,EXNAT_3_fMRI_Psychopy2023.1.3,2023.1.3,59.99808317586289,
0,0,0,0,,,,,,,,,,,#D292F3,811.7110221385956,52.96371507644653,None,None,None,544.4253901074371,text_01,79,1,1,1,Reading_Baseline_main_no_click,None,Fische,,,,,OA05,001,no,1500,2000,94,349,422,2024-08-28_12h06.09.732,EXNAT_3_fMRI_Psychopy2023.1.3,2023.1.3,59.99808317586289,
0,0,0,0,,,,,,,,,,,#2AB7EF,812.2608301639557,53.51352310180664,None,None,None,470.0,text_01,80,1,1,1,Reading_Baseline_main_no_click,None,zu,,,,,OA05,001,no,1500,2000,94,349,422,2024-08-28_12h06.09.732,EXNAT_3_fMRI_Psychopy2023.1.3,2023.1.3,59.99808317586289,
0,0,0,0,,,,,,,,,,,#88BA3F,812.7446291446686,53.99732208251953,None,None,None,544.4253901074371,text_01,81,1,1,1,Reading_Baseline_main_no_click,None,jagen.,,,,,OA05,001,no,1500,2000,94,349,422,2024-08-28_12h06.09.732,EXNAT_3_fMRI_Psychopy2023.1.3,2023.1.3,59.99808317586289,
0,0,0,0,,,,,,,,,,,#2AB7EF,813.2940170764923,54.54671001434326,None,None,None,506.3116699452698,text_01,82,1,1,1,Reading_Baseline_main_no_click,None,Seit,,,,,OA05,001,no,1500,2000,94,349,422,2024-08-28_12h06.09.732,EXNAT_3_fMRI_Psychopy2023.1.3,2023.1.3,59.99808317586289,
0,0,0,0,,,,,,,,,,,#D292F3,813.8106360435486,55.063328981399536,None,None,None,506.3116699452698,text_01,83,1,1,1,Reading_Baseline_main_no_click,None,zwei,,,,,OA05,001,no,1500,2000,94,349,422,2024-08-28_12h06.09.732,EXNAT_3_fMRI_Psychopy2023.1.3,2023.1.3,59.99808317586289,
0,0,0,0,,,,,,,,,,,#F989A2,814.3278970718384,55.58059000968933,None,None,None,544.4253901074371,text_01,84,1,1,1,Reading_Baseline_main_no_click,None,Wochen,,,,,OA05,001,no,1500,2000,94,349,422,2024-08-28_12h06.09.732,EXNAT_3_fMRI_Psychopy2023.1.3,2023.1.3,59.99808317586289,
0,0,0,0,,,,,,,,,,,#D292F3,814.8772351741791,56.12992811203003,None,None,None,506.3116699452698,text_01,85,1,1,1,Reading_Baseline_main_no_click,None,aber,,,,,OA05,001,no,1500,2000,94,349,422,2024-08-28_12h06.09.732,EXNAT_3_fMRI_Psychopy2023.1.3,2023.1.3,59.99808317586289,
0,0,0,0,,,,,,,,,,,#F989A2,815.3942291736603,56.64692211151123,None,None,None,506.3116699452698,text_01,86,1,1,1,Reading_Baseline_main_no_click,None,sind,,,,,OA05,001,no,1500,2000,94,349,422,2024-08-28_12h06.09.732,EXNAT_3_fMRI_Psychopy2023.1.3,2023.1.3,59.99808317586289,
0,0,0,0,,,,,,,,,,,#88BA3F,815.9104890823364,57.16318202018738,None,None,None,479.2695551348023,text_01,87,1,1,1,Reading_Baseline_main_no_click,None,sie,,,,,OA05,001,no,1500,2000,94,349,422,2024-08-28_12h06.09.732,EXNAT_3_fMRI_Psychopy2023.1.3,2023.1.3,59.99808317586289,
0,0,0,0,,,,,,,,,,,#88BA3F,816.3937289714813,57.646421909332275,None,None,None,506.3116699452698,text_01,88,1,1,1,Reading_Baseline_main_no_click,None,auch,,,,,OA05,001,no,1500,2000,94,349,422,2024-08-28_12h06.09.732,EXNAT_3_fMRI_Psychopy2023.1.3,2023.1.3,59.99808317586289,
0,0,0,0,,,,,,,,,,,#2AB7EF,816.9104599952698,58.16315293312073,None,None,None,479.2695551348023,text_01,89,1,1,1,Reading_Baseline_main_no_click,None,bei,,,,,OA05,001,no,1500,2000,94,349,422,2024-08-28_12h06.09.732,EXNAT_3_fMRI_Psychopy2023.1.3,2023.1.3,59.99808317586289,
0,0,0,0,,,,,,,,,,,#D292F3,817.3940150737762,58.6467080116272,None,None,None,592.4429987414403,text_01,90,1,1,1,Reading_Baseline_main_no_click,None,Tageslicht,,,,,OA05,001,no,1500,2000,94,349,422,2024-08-28_12h06.09.732,EXNAT_3_fMRI_Psychopy2023.1.3,2023.1.3,59.99808317586289,
0,0,0,0,,,,,,,,,,,#88BA3F,817.9936950206757,59.24638795852661,None,None,None,479.2695551348023,text_01,91,1,1,1,Reading_Baseline_main_no_click,None,vor,,,,,OA05,001,no,1500,2000,94,349,422,2024-08-28_12h06.09.732,EXNAT_3_fMRI_Psychopy2023.1.3,2023.1.3,59.99808317586289,
0,0,0,0,,,,,,,,,,,#F989A2,818.4770081043243,59.72970104217529,None,None,None,479.2695551348023,text_01,92,1,1,1,Reading_Baseline_main_no_click,None,der,,,,,OA05,001,no,1500,2000,94,349,422,2024-08-28_12h06.09.732,EXNAT_3_fMRI_Psychopy2023.1.3,2023.1.3,59.99808317586289,
0,0,0,0,,,,,,,,,,,#2AB7EF,818.9603769779205,60.213069915771484,None,None,None,527.2871637688054,text_01,93,1,1,1,Reading_Baseline_main_no_click,None,Küste,,,,,OA05,001,no,1500,2000,94,349,422,2024-08-28_12h06.09.732,EXNAT_3_fMRI_Psychopy2023.1.3,2023.1.3,59.99808317586289,
0,0,0,0,,,,,,,,,,,#D292F3,819.4936671257019,60.746360063552856,None,None,None,470.0,text_01,94,1,1,1,Reading_Baseline_main_no_click,None,zu,,,,,OA05,001,no,1500,2000,94,349,422,2024-08-28_12h06.09.732,EXNAT_3_fMRI_Psychopy2023.1.3,2023.1.3,59.99808317586289,
0,0,0,0,,,,,,,,,,,#F989A2,819.9772691726685,61.22996211051941,None,None,None,544.4253901074371,text_01,95,1,1,1,Reading_Baseline_main_no_click,None,sehen.,,,,,OA05,001,no,1500,2000,94,349,422,2024-08-28_12h06.09.732,EXNAT_3_fMRI_Psychopy2023.1.3,2023.1.3,59.99808317586289,
0,0,0,0,,,,,,,,,,,#D292F3,820.5275061130524,61.78019905090332,None,None,None,571.4675049179045,text_01,96,1,1,1,Reading_Baseline_main_no_click,None,Zunächst,,,,,OA05,001,no,1500,2000,94,349,422,2024-08-28_12h06.09.732,EXNAT_3_fMRI_Psychopy2023.1.3,2023.1.3,59.99808317586289,
0,0,0,0,,,,,,,,,,,#2AB7EF,821.110377073288,62.363070011138916,None,None,None,544.4253901074371,text_01,97,1,1,1,Reading_Baseline_main_no_click,None,wurden,,,,,OA05,001,no,1500,2000,94,349,422,2024-08-28_12h06.09.732,EXNAT_3_fMRI_Psychopy2023.1.3,2023.1.3,59.99808317586289,
0,0,0,0,,,,,,,,,,,#D292F3,821.6601891517639,62.91288208961487,None,None,None,506.3116699452698,text_01,98,1,1,1,Reading_Baseline_main_no_click,None,mehr,,,,,OA05,001,no,1500,2000,94,349,422,2024-08-28_12h06.09.732,EXNAT_3_fMRI_Psychopy2023.1.3,2023.1.3,59.99808317586289,
0,0,0,0,,,,,,,,,,,#D292F3,822.1766610145569,63.42935395240784,None,None,None,479.2695551348023,text_01,99,1,1,1,Reading_Baseline_main_no_click,None,als,,,,,OA05,001,no,1500,2000,94,349,422,2024-08-28_12h06.09.732,EXNAT_3_fMRI_Psychopy2023.1.3,2023.1.3,59.99808317586289,
0,0,0,0,,,,,,,,,,,#2AB7EF,822.6606621742249,63.913355112075806,None,None,None,479.2695551348023,text_01,100,1,1,1,Reading_Baseline_main_no_click,None,200,,,,,OA05,001,no,1500,2000,94,349,422,2024-08-28_12h06.09.732,EXNAT_3_fMRI_Psychopy2023.1.3,2023.1.3,59.99808317586289,
0,0,0,0,,,,,,,,,,,#F989A2,823.1435251235962,64.39621806144714,None,None,None,558.9155540111994,text_01,101,1,1,1,Reading_Baseline_main_no_click,None,Kalmare,,,,,OA05,001,no,1500,2000,94,349,422,2024-08-28_12h06.09.732,EXNAT_3_fMRI_Psychopy2023.1.3,2023.1.3,59.99808317586289,
0,0,0,0,,,,,,,,,,,#88BA3F,823.7099990844727,64.96269202232361,None,None,None,479.2695551348023,text_01,102,1,1,1,Reading_Baseline_main_no_click,None,vor,,,,,OA05,001,no,1500,2000,94,349,422,2024-08-28_12h06.09.732,EXNAT_3_fMRI_Psychopy2023.1.3,2023.1.3,59.99808317586289,
0,0,0,0,,,,,,,,,,,#F989A2,824.1932129859924,65.44590592384338,None,None,None,527.2871637688054,text_01,103,1,1,1,Reading_Baseline_main_no_click,None,einer,,,,,OA05,001,no,1500,2000,94,349,422,2024-08-28_12h06.09.732,EXNAT_3_fMRI_Psychopy2023.1.3,2023.1.3,59.99808317586289,
0,0,0,0,,,,,,,,,,,#88BA3F,824.7270820140839,65.97977495193481,None,None,None,527.2871637688054,text_01,104,1,1,1,Reading_Baseline_main_no_click,None,Insel,,,,,OA05,001,no,1500,2000,94,349,422,2024-08-28_12h06.09.732,EXNAT_3_fMRI_Psychopy2023.1.3,2023.1.3,59.99808317586289,
0,0,0,0,,,,,,,,,,,#F989A2,825.2598700523376,66.5125629901886,None,None,None,479.2695551348023,text_01,105,1,1,1,Reading_Baseline_main_no_click,None,vor,,,,,OA05,001,no,1500,2000,94,349,422,2024-08-28_12h06.09.732,EXNAT_3_fMRI_Psychopy2023.1.3,2023.1.3,59.99808317586289,
0,0,0,0,,,,,,,,,,,#D292F3,825.7431280612946,66.99582099914551,None,None,None,527.2871637688054,text_01,106,1,1,1,Reading_Baseline_main_no_click,None,Chile,,,,,OA05,001,no,1500,2000,94,349,422,2024-08-28_12h06.09.732,EXNAT_3_fMRI_Psychopy2023.1.3,2023.1.3,59.99808317586289,
0,0,0,0,,,,,,,,,,,#2AB7EF,826.2765100002289,67.52920293807983,None,None,None,592.4429987414403,text_01,107,1,1,1,Reading_Baseline_main_no_click,None,gesichtet.,,,,,OA05,001,no,1500,2000,94,349,422,2024-08-28_12h06.09.732,EXNAT_3_fMRI_Psychopy2023.1.3,2023.1.3,59.99808317586289,
0,0,0,0,,,,,,,,,,,#88BA3F,826.8763861656189,68.12907910346985,None,None,None,544.4253901074371,text_01,108,1,1,1,Reading_Baseline_main_no_click,None,Später,,,,,OA05,001,no,1500,2000,94,349,422,2024-08-28_12h06.09.732,EXNAT_3_fMRI_Psychopy2023.1.3,2023.1.3,59.99808317586289,
0,0,0,0,,,,,,,,,,,#2AB7EF,827.4263379573822,68.67903089523315,None,None,None,544.4253901074371,text_01,109,1,1,1,Reading_Baseline_main_no_click,None,wurden,,,,,OA05,001,no,1500,2000,94,349,422,2024-08-28_12h06.09.732,EXNAT_3_fMRI_Psychopy2023.1.3,2023.1.3,59.99808317586289,
0,0,0,0,,,,,,,,,,,#2AB7EF,827.9761471748352,69.22884011268616,None,None,None,506.3116699452698,text_01,110,1,1,1,Reading_Baseline_main_no_click,None,dann,,,,,OA05,001,no,1500,2000,94,349,422,2024-08-28_12h06.09.732,EXNAT_3_fMRI_Psychopy2023.1.3,2023.1.3,59.99808317586289,
0,0,0,0,,,,,,,,,,,#D292F3,828.4929189682007,69.74561190605164,None,None,None,558.9155540111994,text_01,111,1,1,1,Reading_Baseline_main_no_click,None,weitere,,,,,OA05,001,no,1500,2000,94,349,422,2024-08-28_12h06.09.732,EXNAT_3_fMRI_Psychopy2023.1.3,2023.1.3,59.99808317586289,
0,0,0,0,,,,,,,,,,,#D292F3,829.0595941543579,70.31228709220886,None,None,None,558.9155540111994,text_01,112,1,1,1,Reading_Baseline_main_no_click,None,Kalmare,,,,,OA05,001,no,1500,2000,94,349,422,2024-08-28_12h06.09.732,EXNAT_3_fMRI_Psychopy2023.1.3,2023.1.3,59.99808317586289,
0,0,0,0,,,,,,,,,,,#88BA3F,829.6263761520386,70.87906908988953,None,None,None,470.0,text_01,113,1,1,1,Reading_Baseline_main_no_click,None,an,,,,,OA05,001,no,1500,2000,94,349,422,2024-08-28_12h06.09.732,EXNAT_3_fMRI_Psychopy2023.1.3,2023.1.3,59.99808317586289,
0,0,0,0,,,,,,,,,,,#F989A2,830.1095640659332,71.36225700378418,None,None,None,558.9155540111994,text_01,114,1,1,1,Reading_Baseline_main_no_click,None,anderen,,,,,OA05,001,no,1500,2000,94,349,422,2024-08-28_12h06.09.732,EXNAT_3_fMRI_Psychopy2023.1.3,2023.1.3,59.99808317586289,
0,0,0,0,,,,,,,,,,,#88BA3F,830.6761929988861,71.92888593673706,None,None,None,527.2871637688054,text_01,115,1,1,1,Reading_Baseline_main_no_click,None,Orten,,,,,OA05,001,no,1500,2000,94,349,422,2024-08-28_12h06.09.732,EXNAT_3_fMRI_Psychopy2023.1.3,2023.1.3,59.99808317586289,
0,0,0,0,,,,,,,,,,,#2AB7EF,831.2094089984894,72.46210193634033,None,None,None,558.9155540111994,text_01,116,1,1,1,Reading_Baseline_main_no_click,None,entlang,,,,,OA05,001,no,1500,2000,94,349,422,2024-08-28_12h06.09.732,EXNAT_3_fMRI_Psychopy2023.1.3,2023.1.3,59.99808317586289,
0,0,0,0,,,,,,,,,,,#F989A2,831.7759170532227,73.02860999107361,None,None,None,479.2695551348023,text_01,117,1,1,1,Reading_Baseline_main_no_click,None,der,,,,,OA05,001,no,1500,2000,94,349,422,2024-08-28_12h06.09.732,EXNAT_3_fMRI_Psychopy2023.1.3,2023.1.3,59.99808317586289,
0,0,0,0,,,,,,,,,,,#F989A2,832.2595319747925,73.51222491264343,None,None,None,527.2871637688054,text_01,118,1,1,1,Reading_Baseline_main_no_click,None,Küste,,,,,OA05,001,no,1500,2000,94,349,422,2024-08-28_12h06.09.732,EXNAT_3_fMRI_Psychopy2023.1.3,2023.1.3,59.99808317586289,
0,0,0,0,,,,,,,,,,,#88BA3F,832.7926249504089,74.04531788825989,None,None,None,544.4253901074371,text_01,119,1,1,1,Reading_Baseline_main_no_click,None,Chiles,,,,,OA05,001,no,1500,2000,94,349,422,2024-08-28_12h06.09.732,EXNAT_3_fMRI_Psychopy2023.1.3,2023.1.3,59.99808317586289,
0,0,0,0,,,,,,,,,,,#D292F3,833.3427450656891,74.59543800354004,None,None,None,601.4021556430469,text_01,120,1,1,1,Reading_Baseline_main_no_click,None,beobachtet.,,,,,OA05,001,no,1500,2000,94,349,422,2024-08-28_12h06.09.732,EXNAT_3_fMRI_Psychopy2023.1.3,2023.1.3,59.99808317586289,
0,0,0,0,,,,,,,,,,,#88BA3F,833.9590020179749,75.2116949558258,None,None,None,479.2695551348023,text_01,121,1,1,1,Reading_Baseline_main_no_click,None,Vor,,,,,OA05,001,no,1500,2000,94,349,422,2024-08-28_12h06.09.732,EXNAT_3_fMRI_Psychopy2023.1.3,2023.1.3,59.99808317586289,
0,0,0,0,,,,,,,,,,,#F989A2,834.4428019523621,75.69549489021301,None,None,None,527.2871637688054,text_01,122,1,1,1,Reading_Baseline_main_no_click,None,allem,,,,,OA05,001,no,1500,2000,94,349,422,2024-08-28_12h06.09.732,EXNAT_3_fMRI_Psychopy2023.1.3,2023.1.3,59.99808317586289,
0,0,0,0,,,,,,,,,,,#88BA3F,834.9756410121918,76.22833395004272,None,None,None,479.2695551348023,text_01,123,1,1,1,Reading_Baseline_main_no_click,None,für,,,,,OA05,001,no,1500,2000,94,349,422,2024-08-28_12h06.09.732,EXNAT_3_fMRI_Psychopy2023.1.3,2023.1.3,59.99808317586289,
0,0,0,0,,,,,,,,,,,#2AB7EF,835.4588820934296,76.71157503128052,None,None,None,479.2695551348023,text_01,124,1,1,1,Reading_Baseline_main_no_click,None,die,,,,,OA05,001,no,1500,2000,94,349,422,2024-08-28_12h06.09.732,EXNAT_3_fMRI_Psychopy2023.1.3,2023.1.3,59.99808317586289,
0,0,0,0,,,,,,,,,,,#F989A2,835.9424061775208,77.1950991153717,None,None,None,558.9155540111994,text_01,125,1,1,1,Reading_Baseline_main_no_click,None,Fischer,,,,,OA05,001,no,1500,2000,94,349,422,2024-08-28_12h06.09.732,EXNAT_3_fMRI_Psychopy2023.1.3,2023.1.3,59.99808317586289,
0,0,0,0,,,,,,,,,,,#D292F3,836.5087971687317,77.76149010658264,None,None,None,479.2695551348023,text_01,126,1,1,1,Reading_Baseline_main_no_click,None,ist,,,,,OA05,001,no,1500,2000,94,349,422,2024-08-28_12h06.09.732,EXNAT_3_fMRI_Psychopy2023.1.3,2023.1.3,59.99808317586289,
0,0,0,0,,,,,,,,,,,#2AB7EF,836.9921460151672,78.24483895301819,None,None,None,479.2695551348023,text_01,127,1,1,1,Reading_Baseline_main_no_click,None,das,,,,,OA05,001,no,1500,2000,94,349,422,2024-08-28_12h06.09.732,EXNAT_3_fMRI_Psychopy2023.1.3,2023.1.3,59.99808317586289,
0,0,0,0,,,,,,,,,,,#F989A2,837.4756531715393,78.72834610939026,None,None,None,592.4429987414403,text_01,128,1,1,1,Reading_Baseline_main_no_click,None,ärgerlich.,,,,,OA05,001,no,1500,2000,94,349,422,2024-08-28_12h06.09.732,EXNAT_3_fMRI_Psychopy2023.1.3,2023.1.3,59.99808317586289,
0,0,0,0,,,,,,,,,,,#2AB7EF,838.0757420063019,79.32843494415283,None,None,None,479.2695551348023,text_01,129,1,1,1,Reading_Baseline_main_no_click,None,Die,,,,,OA05,001,no,1500,2000,94,349,422,2024-08-28_12h06.09.732,EXNAT_3_fMRI_Psychopy2023.1.3,2023.1.3,59.99808317586289,
0,0,0,0,,,,,,,,,,,#88BA3F,838.5589330196381,79.81162595748901,None,None,None,558.9155540111994,text_01,130,1,1,1,Reading_Baseline_main_no_click,None,Kalmare,,,,,OA05,001,no,1500,2000,94,349,422,2024-08-28_12h06.09.732,EXNAT_3_fMRI_Psychopy2023.1.3,2023.1.3,59.99808317586289,
0,0,0,0,,,,,,,,,,,#D292F3,839.1258130073547,80.37850594520569,None,None,None,558.9155540111994,text_01,131,1,1,1,Reading_Baseline_main_no_click,None,fressen,,,,,OA05,001,no,1500,2000,94,349,422,2024-08-28_12h06.09.732,EXNAT_3_fMRI_Psychopy2023.1.3,2023.1.3,59.99808317586289,
0,0,0,0,,,,,,,,,,,#88BA3F,839.6921620368958,80.9448549747467,None,None,None,558.9155540111994,text_01,132,1,1,1,Reading_Baseline_main_no_click,None,"Hechte,",,,,,OA05,001,no,1500,2000,94,349,422,2024-08-28_12h06.09.732,EXNAT_3_fMRI_Psychopy2023.1.3,2023.1.3,59.99808317586289,
0,0,0,0,,,,,,,,,,,#D292F3,840.2587871551514,81.51148009300232,None,None,None,571.4675049179045,text_01,133,1,1,1,Reading_Baseline_main_no_click,None,Sardinen,,,,,OA05,001,no,1500,2000,94,349,422,2024-08-28_12h06.09.732,EXNAT_3_fMRI_Psychopy2023.1.3,2023.1.3,59.99808317586289,
0,0,0,0,,,,,,,,,,,#88BA3F,840.8417580127716,82.09445095062256,None,None,None,479.2695551348023,text_01,134,1,1,1,Reading_Baseline_main_no_click,None,und,,,,,OA05,001,no,1500,2000,94,349,422,2024-08-28_12h06.09.732,EXNAT_3_fMRI_Psychopy2023.1.3,2023.1.3,59.99808317586289,
0,0,0,0,,,,,,,,,,,#D292F3,841.3253929615021,82.57808589935303,None,None,None,592.4429987414403,text_01,135,1,1,1,Reading_Baseline_main_no_click,None,Sardellen.,,,,,OA05,001,no,1500,2000,94,349,422,2024-08-28_12h06.09.732,EXNAT_3_fMRI_Psychopy2023.1.3,2023.1.3,59.99808317586289,
0,0,0,0,,,,,,,,,,,#F989A2,841.9254500865936,83.17814302444458,None,None,None,479.2695551348023,text_01,136,1,1,1,Reading_Baseline_main_no_click,None,Und,,,,,OA05,001,no,1500,2000,94,349,422,2024-08-28_12h06.09.732,EXNAT_3_fMRI_Psychopy2023.1.3,2023.1.3,59.99808317586289,
0,0,0,0,,,,,,,,,,,#F989A2,842.4083180427551,83.66101098060608,None,None,None,479.2695551348023,text_01,137,1,1,1,Reading_Baseline_main_no_click,None,sie,,,,,OA05,001,no,1500,2000,94,349,422,2024-08-28_12h06.09.732,EXNAT_3_fMRI_Psychopy2023.1.3,2023.1.3,59.99808317586289,
0,0,0,0,,,,,,,,,,,#2AB7EF,842.891764163971,84.1444571018219,None,None,None,527.2871637688054,text_01,138,1,1,1,Reading_Baseline_main_no_click,None,haben,,,,,OA05,001,no,1500,2000,94,349,422,2024-08-28_12h06.09.732,EXNAT_3_fMRI_Psychopy2023.1.3,2023.1.3,59.99808317586289,
0,0,0,0,,,,,,,,,,,#D292F3,843.4250581264496,84.67775106430054,None,None,None,544.4253901074371,text_01,139,1,1,1,Reading_Baseline_main_no_click,None,großen,,,,,OA05,001,no,1500,2000,94,349,422,2024-08-28_12h06.09.732,EXNAT_3_fMRI_Psychopy2023.1.3,2023.1.3,59.99808317586289,
0,0,0,0,,,,,,,,,,,#F989A2,843.9758729934692,85.22856593132019,None,None,None,571.4675049179045,text_01,140,1,1,1,Reading_Baseline_main_no_click,None,Hunger -,,,,,OA05,001,no,1500,2000,94,349,422,2024-08-28_12h06.09.732,EXNAT_3_fMRI_Psychopy2023.1.3,2023.1.3,59.99808317586289,
0,0,0,0,,,,,,,,,,,#88BA3F,844.5584540367126,85.8111469745636,None,None,None,582.5391102696046,text_01,141,1,1,1,Reading_Baseline_main_no_click,None,schlechte,,,,,OA05,001,no,1500,2000,94,349,422,2024-08-28_12h06.09.732,EXNAT_3_fMRI_Psychopy2023.1.3,2023.1.3,59.99808317586289,
0,0,0,0,,,,,,,,,,,#D292F3,845.1582779884338,86.41097092628479,None,None,None,544.4253901074371,text_01,142,1,1,1,Reading_Baseline_main_no_click,None,Karten,,,,,OA05,001,no,1500,2000,94,349,422,2024-08-28_12h06.09.732,EXNAT_3_fMRI_Psychopy2023.1.3,2023.1.3,59.99808317586289,
0,0,0,0,,,,,,,,,,,#88BA3F,845.7080509662628,86.96074390411377,None,None,None,479.2695551348023,text_01,143,1,1,1,Reading_Baseline_main_no_click,None,für,,,,,OA05,001,no,1500,2000,94,349,422,2024-08-28_12h06.09.732,EXNAT_3_fMRI_Psychopy2023.1.3,2023.1.3,59.99808317586289,
0,0,0,0,,,,,,,,,,,#2AB7EF,846.1913139820099,87.44400691986084,None,None,None,479.2695551348023,text_01,144,1,1,1,Reading_Baseline_main_no_click,None,die,,,,,OA05,001,no,1500,2000,94,349,422,2024-08-28_12h06.09.732,EXNAT_3_fMRI_Psychopy2023.1.3,2023.1.3,59.99808317586289,
0,0,0,0,,,,,,,,,,,#F989A2,846.6748631000519,87.92755603790283,None,None,None,582.5391102696046,text_01,145,1,1,1,Reading_Baseline_main_no_click,None,kleineren,,,,,OA05,001,no,1500,2000,94,349,422,2024-08-28_12h06.09.732,EXNAT_3_fMRI_Psychopy2023.1.3,2023.1.3,59.99808317586289,
0,0,0,0,,,,,,,,,,,#D292F3,847.2747521400452,88.52744507789612,None,None,None,558.9155540111994,text_01,146,1,1,1,Reading_Baseline_main_no_click,None,Fische.,,,,,OA05,001,no,1500,2000,94,349,422,2024-08-28_12h06.09.732,EXNAT_3_fMRI_Psychopy2023.1.3,2023.1.3,59.99808317586289,
0,0,0,0,,,,,,,,,,,#2AB7EF,847.8411731719971,89.09386610984802,None,None,None,479.2695551348023,text_01,147,1,1,1,Reading_Baseline_main_no_click,None,Die,,,,,OA05,001,no,1500,2000,94,349,422,2024-08-28_12h06.09.732,EXNAT_3_fMRI_Psychopy2023.1.3,2023.1.3,59.99808317586289,
0,0,0,0,,,,,,,,,,,#88BA3F,848.3246901035309,89.57738304138184,None,None,None,558.9155540111994,text_01,148,1,1,1,Reading_Baseline_main_no_click,None,Kalmare,,,,,OA05,001,no,1500,2000,94,349,422,2024-08-28_12h06.09.732,EXNAT_3_fMRI_Psychopy2023.1.3,2023.1.3,59.99808317586289,
0,0,0,0,,,,,,,,,,,#88BA3F,848.8915390968323,90.14423203468323,None,None,None,544.4253901074371,text_01,149,1,1,1,Reading_Baseline_main_no_click,None,selbst,,,,,OA05,001,no,1500,2000,94,349,422,2024-08-28_12h06.09.732,EXNAT_3_fMRI_Psychopy2023.1.3,2023.1.3,59.99808317586289,
0,0,0,0,,,,,,,,,,,#F989A2,849.4411880970001,90.69388103485107,None,None,None,527.2871637688054,text_01,150,1,1,1,Reading_Baseline_main_no_click,None,haben,,,,,OA05,001,no,1500,2000,94,349,422,2024-08-28_12h06.09.732,EXNAT_3_fMRI_Psychopy2023.1.3,2023.1.3,59.99808317586289,
0,0,0,0,,,,,,,,,,,#D292F3,849.9745349884033,91.22722792625427,None,None,None,571.4675049179045,text_01,151,1,1,1,Reading_Baseline_main_no_click,None,hingegen,,,,,OA05,001,no,1500,2000,94,349,422,2024-08-28_12h06.09.732,EXNAT_3_fMRI_Psychopy2023.1.3,2023.1.3,59.99808317586289,
0,0,0,0,,,,,,,,,,,#F989A2,850.5582101345062,91.81090307235718,None,None,None,544.4253901074371,text_01,152,1,1,1,Reading_Baseline_main_no_click,None,Glück:,,,,,OA05,001,no,1500,2000,94,349,422,2024-08-28_12h06.09.732,EXNAT_3_fMRI_Psychopy2023.1.3,2023.1.3,59.99808317586289,
0,0,0,0,,,,,,,,,,,#D292F3,851.1075580120087,92.36025094985962,None,None,None,479.2695551348023,text_01,153,1,1,1,Reading_Baseline_main_no_click,None,Sie,,,,,OA05,001,no,1500,2000,94,349,422,2024-08-28_12h06.09.732,EXNAT_3_fMRI_Psychopy2023.1.3,2023.1.3,59.99808317586289,
0,0,0,0,,,,,,,,,,,#2AB7EF,851.5911481380463,92.84384107589722,None,None,None,544.4253901074371,text_01,154,1,1,1,Reading_Baseline_main_no_click,None,gelten,,,,,OA05,001,no,1500,2000,94,349,422,2024-08-28_12h06.09.732,EXNAT_3_fMRI_Psychopy2023.1.3,2023.1.3,59.99808317586289,
0,0,0,0,,,,,,,,,,,#88BA3F,852.1409311294556,93.39362406730652,None,None,None,506.3116699452698,text_01,155,1,1,1,Reading_Baseline_main_no_click,None,zwar,,,,,OA05,001,no,1500,2000,94,349,422,2024-08-28_12h06.09.732,EXNAT_3_fMRI_Psychopy2023.1.3,2023.1.3,59.99808317586289,
0,0,0,0,,,,,,,,,,,#F989A2,852.657387971878,93.910080909729,None,None,None,470.0,text_01,156,1,1,1,Reading_Baseline_main_no_click,None,in,,,,,OA05,001,no,1500,2000,94,349,422,2024-08-28_12h06.09.732,EXNAT_3_fMRI_Psychopy2023.1.3,2023.1.3,59.99808317586289,
0,0,0,0,,,,,,,,,,,#88BA3F,853.1408979892731,94.39359092712402,None,None,None,558.9155540111994,text_01,157,1,1,1,Reading_Baseline_main_no_click,None,manchen,,,,,OA05,001,no,1500,2000,94,349,422,2024-08-28_12h06.09.732,EXNAT_3_fMRI_Psychopy2023.1.3,2023.1.3,59.99808317586289,
0,0,0,0,,,,,,,,,,,#F989A2,853.7081830501556,94.96087598800659,None,None,None,558.9155540111994,text_01,158,1,1,1,Reading_Baseline_main_no_click,None,Ländern,,,,,OA05,001,no,1500,2000,94,349,422,2024-08-28_12h06.09.732,EXNAT_3_fMRI_Psychopy2023.1.3,2023.1.3,59.99808317586289,
0,0,0,0,,,,,,,,,,,#D292F3,854.2740499973297,95.52674293518066,None,None,None,479.2695551348023,text_01,159,1,1,1,Reading_Baseline_main_no_click,None,als,,,,,OA05,001,no,1500,2000,94,349,422,2024-08-28_12h06.09.732,EXNAT_3_fMRI_Psychopy2023.1.3,2023.1.3,59.99808317586289,
0,0,0,0,,,,,,,,,,,#88BA3F,854.7576169967651,96.01030993461609,None,None,None,609.581225080072,text_01,160,1,1,1,Reading_Baseline_main_no_click,None,"Delikatesse,",,,,,OA05,001,no,1500,2000,94,349,422,2024-08-28_12h06.09.732,EXNAT_3_fMRI_Psychopy2023.1.3,2023.1.3,59.99808317586289,
0,0,0,0,,,,,,,,,,,#2AB7EF,855.3740880489349,96.62678098678589,None,None,None,544.4253901074371,text_01,161,1,1,1,Reading_Baseline_main_no_click,None,werden,,,,,OA05,001,no,1500,2000,94,349,422,2024-08-28_12h06.09.732,EXNAT_3_fMRI_Psychopy2023.1.3,2023.1.3,59.99808317586289,
0,0,0,0,,,,,,,,,,,#D292F3,855.9237661361694,97.17645907402039,None,None,None,470.0,text_01,162,1,1,1,Reading_Baseline_main_no_click,None,in,,,,,OA05,001,no,1500,2000,94,349,422,2024-08-28_12h06.09.732,EXNAT_3_fMRI_Psychopy2023.1.3,2023.1.3,59.99808317586289,
0,0,0,0,,,,,,,,,,,#F989A2,856.407389163971,97.6600821018219,None,None,None,527.2871637688054,text_01,163,1,1,1,Reading_Baseline_main_no_click,None,Chile,,,,,OA05,001,no,1500,2000,94,349,422,2024-08-28_12h06.09.732,EXNAT_3_fMRI_Psychopy2023.1.3,2023.1.3,59.99808317586289,
0,0,0,0,,,,,,,,,,,#F989A2,856.9406681060791,98.19336104393005,None,None,None,544.4253901074371,text_01,164,1,1,1,Reading_Baseline_main_no_click,None,jedoch,,,,,OA05,001,no,1500,2000,94,349,422,2024-08-28_12h06.09.732,EXNAT_3_fMRI_Psychopy2023.1.3,2023.1.3,59.99808317586289,
0,0,0,0,,,,,,,,,,,#88BA3F,857.4904899597168,98.74318289756775,None,None,None,527.2871637688054,text_01,165,1,1,1,Reading_Baseline_main_no_click,None,nicht,,,,,OA05,001,no,1500,2000,94,349,422,2024-08-28_12h06.09.732,EXNAT_3_fMRI_Psychopy2023.1.3,2023.1.3,59.99808317586289,
0,0,0,0,,,,,,,,,,,#D292F3,858.0238630771637,99.27655601501465,None,None,None,582.5391102696046,text_01,166,1,1,1,Reading_Baseline_main_no_click,None,gegessen.,,,,,OA05,001,no,1500,2000,94,349,422,2024-08-28_12h06.09.732,EXNAT_3_fMRI_Psychopy2023.1.3,2023.1.3,59.99808317586289,
0,0,0,0,,,,,,,,,,,#2AB7EF,858.624144077301,99.87683701515198,None,None,None,624.0713889838343,text_01,167,1,1,1,Reading_Baseline_main_no_click,None,Meeresbiologen,,,,,OA05,001,no,1500,2000,94,349,422,2024-08-28_12h06.09.732,EXNAT_3_fMRI_Psychopy2023.1.3,2023.1.3,59.99808317586289,
0,0,0,0,,,,,,,,,,,#D292F3,859.2570090293884,100.50970196723938,None,None,None,558.9155540111994,text_01,168,1,1,1,Reading_Baseline_main_no_click,None,standen,,,,,OA05,001,no,1500,2000,94,349,422,2024-08-28_12h06.09.732,EXNAT_3_fMRI_Psychopy2023.1.3,2023.1.3,59.99808317586289,
0,0,0,0,,,,,,,,,,,#88BA3F,859.8235599994659,101.0762529373169,None,None,None,527.2871637688054,text_01,169,1,1,1,Reading_Baseline_main_no_click,None,wegen,,,,,OA05,001,no,1500,2000,94,349,422,2024-08-28_12h06.09.732,EXNAT_3_fMRI_Psychopy2023.1.3,2023.1.3,59.99808317586289,
0,0,0,0,,,,,,,,,,,#D292F3,860.3568301200867,101.60952305793762,None,None,None,479.2695551348023,text_01,170,1,1,1,Reading_Baseline_main_no_click,None,des,,,,,OA05,001,no,1500,2000,94,349,422,2024-08-28_12h06.09.732,EXNAT_3_fMRI_Psychopy2023.1.3,2023.1.3,59.99808317586289,
0,0,0,0,,,,,,,,,,,#2AB7EF,860.8408620357513,102.0935549736023,None,None,None,601.4021556430469,text_01,171,1,1,1,Reading_Baseline_main_no_click,None,plötzlichen,,,,,OA05,001,no,1500,2000,94,349,422,2024-08-28_12h06.09.732,EXNAT_3_fMRI_Psychopy2023.1.3,2023.1.3,59.99808317586289,
0,0,0,0,,,,,,,,,,,#88BA3F,861.4578499794006,102.71054291725159,None,None,None,601.4021556430469,text_01,172,1,1,1,Reading_Baseline_main_no_click,None,Erscheinens,,,,,OA05,001,no,1500,2000,94,349,422,2024-08-28_12h06.09.732,EXNAT_3_fMRI_Psychopy2023.1.3,2023.1.3,59.99808317586289,
0,0,0,0,,,,,,,,,,,#F989A2,862.0732371807098,103.32593011856079,None,None,None,479.2695551348023,text_01,173,1,1,1,Reading_Baseline_main_no_click,None,der,,,,,OA05,001,no,1500,2000,94,349,422,2024-08-28_12h06.09.732,EXNAT_3_fMRI_Psychopy2023.1.3,2023.1.3,59.99808317586289,
0,0,0,0,,,,,,,,,,,#D292F3,862.5567181110382,103.80941104888916,None,None,None,558.9155540111994,text_01,174,1,1,1,Reading_Baseline_main_no_click,None,Kalmare,,,,,OA05,001,no,1500,2000,94,349,422,2024-08-28_12h06.09.732,EXNAT_3_fMRI_Psychopy2023.1.3,2023.1.3,59.99808317586289,
0,0,0,0,,,,,,,,,,,#F989A2,863.1236369609833,104.37632989883423,None,None,None,571.4675049179045,text_01,175,1,1,1,Reading_Baseline_main_no_click,None,zunächst,,,,,OA05,001,no,1500,2000,94,349,422,2024-08-28_12h06.09.732,EXNAT_3_fMRI_Psychopy2023.1.3,2023.1.3,59.99808317586289,
0,0,0,0,,,,,,,,,,,#F989A2,863.7065951824188,104.95928812026978,None,None,None,479.2695551348023,text_01,176,1,1,1,Reading_Baseline_main_no_click,None,vor,,,,,OA05,001,no,1500,2000,94,349,422,2024-08-28_12h06.09.732,EXNAT_3_fMRI_Psychopy2023.1.3,2023.1.3,59.99808317586289,
0,0,0,0,,,,,,,,,,,#2AB7EF,864.1900851726532,105.44277811050415,None,None,None,527.2871637688054,text_01,177,1,1,1,Reading_Baseline_main_no_click,None,einem,,,,,OA05,001,no,1500,2000,94,349,422,2024-08-28_12h06.09.732,EXNAT_3_fMRI_Psychopy2023.1.3,2023.1.3,59.99808317586289,
0,0,0,0,,,,,,,,,,,#88BA3F,864.7233421802521,105.97603511810303,None,None,None,544.4253901074371,text_01,178,1,1,1,Reading_Baseline_main_no_click,None,großen,,,,,OA05,001,no,1500,2000,94,349,422,2024-08-28_12h06.09.732,EXNAT_3_fMRI_Psychopy2023.1.3,2023.1.3,59.99808317586289,
0,0,0,0,,,,,,,,,,,#2AB7EF,865.2739551067352,106.52664804458618,None,None,None,558.9155540111994,text_01,179,1,1,1,Reading_Baseline_main_no_click,None,Rätsel.,,,,,OA05,001,no,1500,2000,94,349,422,2024-08-28_12h06.09.732,EXNAT_3_fMRI_Psychopy2023.1.3,2023.1.3,59.99808317586289,
0,0,0,0,,,,,,,,,,,#D292F3,865.8396999835968,107.09239292144775,None,None,None,479.2695551348023,text_01,180,1,1,1,Reading_Baseline_main_no_click,None,Nun,,,,,OA05,001,no,1500,2000,94,349,422,2024-08-28_12h06.09.732,EXNAT_3_fMRI_Psychopy2023.1.3,2023.1.3,59.99808317586289,
0,0,0,0,,,,,,,,,,,#F989A2,866.3230810165405,107.57577395439148,None,None,None,479.2695551348023,text_01,181,1,1,1,Reading_Baseline_main_no_click,None,ist,,,,,OA05,001,no,1500,2000,94,349,422,2024-08-28_12h06.09.732,EXNAT_3_fMRI_Psychopy2023.1.3,2023.1.3,59.99808317586289,
0,0,0,0,,,,,,,,,,,#88BA3F,866.8062331676483,108.05892610549927,None,None,None,544.4253901074371,text_01,182,1,1,1,Reading_Baseline_main_no_click,None,jedoch,,,,,OA05,001,no,1500,2000,94,349,422,2024-08-28_12h06.09.732,EXNAT_3_fMRI_Psychopy2023.1.3,2023.1.3,59.99808317586289,
0,0,0,0,,,,,,,,,,,#2AB7EF,867.356034040451,108.608726978302,None,None,None,527.2871637688054,text_01,183,1,1,1,Reading_Baseline_main_no_click,None,"klar,",,,,,OA05,001,no,1500,2000,94,349,422,2024-08-28_12h06.09.732,EXNAT_3_fMRI_Psychopy2023.1.3,2023.1.3,59.99808317586289,
0,0,0,0,,,,,,,,,,,#2AB7EF,867.8896009922028,109.14229393005371,None,None,None,558.9155540111994,text_01,184,1,1,1,Reading_Baseline_main_no_click,None,weshalb,,,,,OA05,001,no,1500,2000,94,349,422,2024-08-28_12h06.09.732,EXNAT_3_fMRI_Psychopy2023.1.3,2023.1.3,59.99808317586289,
0,0,0,0,,,,,,,,,,,#F989A2,868.4558119773865,109.70850491523743,None,None,None,479.2695551348023,text_01,185,1,1,1,Reading_Baseline_main_no_click,None,die,,,,,OA05,001,no,1500,2000,94,349,422,2024-08-28_12h06.09.732,EXNAT_3_fMRI_Psychopy2023.1.3,2023.1.3,59.99808317586289,
0,0,0,0,,,,,,,,,,,#D292F3,868.9392421245575,110.19193506240845,None,None,None,558.9155540111994,text_01,186,1,1,1,Reading_Baseline_main_no_click,None,Kalmare,,,,,OA05,001,no,1500,2000,94,349,422,2024-08-28_12h06.09.732,EXNAT_3_fMRI_Psychopy2023.1.3,2023.1.3,59.99808317586289,
0,0,0,0,,,,,,,,,,,#88BA3F,869.5059859752655,110.75867891311646,None,None,None,582.5391102696046,text_01,187,1,1,1,Reading_Baseline_main_no_click,None,plötzlich,,,,,OA05,001,no,1500,2000,94,349,422,2024-08-28_12h06.09.732,EXNAT_3_fMRI_Psychopy2023.1.3,2023.1.3,59.99808317586289,
0,0,0,0,,,,,,,,,,,#2AB7EF,870.1059591770172,111.35865211486816,None,None,None,609.581225080072,text_01,188,1,1,1,Reading_Baseline_main_no_click,None,auftauchten.,,,,,OA05,001,no,1500,2000,94,349,422,2024-08-28_12h06.09.732,EXNAT_3_fMRI_Psychopy2023.1.3,2023.1.3,59.99808317586289,
0,0,0,0,,,,,,,,,,,#88BA3F,870.7222609519958,111.9749538898468,None,None,None,470.0,text_01,189,1,1,1,Reading_Baseline_main_no_click,None,Im,,,,,OA05,001,no,1500,2000,94,349,422,2024-08-28_12h06.09.732,EXNAT_3_fMRI_Psychopy2023.1.3,2023.1.3,59.99808317586289,
0,0,0,0,,,,,,,,,,,#D292F3,871.2057390213013,112.45843195915222,None,None,None,558.9155540111994,text_01,190,1,1,1,Reading_Baseline_main_no_click,None,Februar,,,,,OA05,001,no,1500,2000,94,349,422,2024-08-28_12h06.09.732,EXNAT_3_fMRI_Psychopy2023.1.3,2023.1.3,59.99808317586289,
0,0,0,0,,,,,,,,,,,#88BA3F,871.7724301815033,113.02512311935425,None,None,None,571.4675049179045,text_01,191,1,1,1,Reading_Baseline_main_no_click,None,erwärmte,,,,,OA05,001,no,1500,2000,94,349,422,2024-08-28_12h06.09.732,EXNAT_3_fMRI_Psychopy2023.1.3,2023.1.3,59.99808317586289,
0,0,0,0,,,,,,,,,,,#F989A2,872.3555421829224,113.60823512077332,None,None,None,506.3116699452698,text_01,192,1,1,1,Reading_Baseline_main_no_click,None,sich,,,,,OA05,001,no,1500,2000,94,349,422,2024-08-28_12h06.09.732,EXNAT_3_fMRI_Psychopy2023.1.3,2023.1.3,59.99808317586289,
0,0,0,0,,,,,,,,,,,#D292F3,872.8723709583282,114.1250638961792,None,None,None,479.2695551348023,text_01,193,1,1,1,Reading_Baseline_main_no_click,None,das,,,,,OA05,001,no,1500,2000,94,349,422,2024-08-28_12h06.09.732,EXNAT_3_fMRI_Psychopy2023.1.3,2023.1.3,59.99808317586289,
0,0,0,0,,,,,,,,,,,#F989A2,873.3554110527039,114.60810399055481,None,None,None,506.3116699452698,text_01,194,1,1,1,Reading_Baseline_main_no_click,None,Meer,,,,,OA05,001,no,1500,2000,94,349,422,2024-08-28_12h06.09.732,EXNAT_3_fMRI_Psychopy2023.1.3,2023.1.3,59.99808317586289,
0,0,0,0,,,,,,,,,,,#88BA3F,873.8722879886627,115.12498092651367,None,None,None,592.4429987414403,text_01,195,1,1,1,Reading_Baseline_main_no_click,None,verglichen,,,,,OA05,001,no,1500,2000,94,349,422,2024-08-28_12h06.09.732,EXNAT_3_fMRI_Psychopy2023.1.3,2023.1.3,59.99808317586289,
0,0,0,0,,,,,,,,,,,#F989A2,874.4719491004944,115.72464203834534,None,None,None,479.2695551348023,text_01,196,1,1,1,Reading_Baseline_main_no_click,None,mit,,,,,OA05,001,no,1500,2000,94,349,422,2024-08-28_12h06.09.732,EXNAT_3_fMRI_Psychopy2023.1.3,2023.1.3,59.99808317586289,
0,0,0,0,,,,,,,,,,,#2AB7EF,874.9553489685059,116.20804190635681,None,None,None,479.2695551348023,text_01,197,1,1,1,Reading_Baseline_main_no_click,None,den,,,,,OA05,001,no,1500,2000,94,349,422,2024-08-28_12h06.09.732,EXNAT_3_fMRI_Psychopy2023.1.3,2023.1.3,59.99808317586289,
0,0,0,0,,,,,,,,,,,#88BA3F,875.4388060569763,116.69149899482727,None,None,None,609.581225080072,text_01,198,1,1,1,Reading_Baseline_main_no_click,None,Temperaturen,,,,,OA05,001,no,1500,2000,94,349,422,2024-08-28_12h06.09.732,EXNAT_3_fMRI_Psychopy2023.1.3,2023.1.3,59.99808317586289,
0,0,0,0,,,,,,,,,,,#D292F3,876.0551199913025,117.30781292915344,None,None,None,470.0,text_01,199,1,1,1,Reading_Baseline_main_no_click,None,in,,,,,OA05,001,no,1500,2000,94,349,422,2024-08-28_12h06.09.732,EXNAT_3_fMRI_Psychopy2023.1.3,2023.1.3,59.99808317586289,
0,0,0,0,,,,,,,,,,,#88BA3F,876.5384969711304,117.79118990898132,None,None,None,479.2695551348023,text_01,200,1,1,1,Reading_Baseline_main_no_click,None,den,,,,,OA05,001,no,1500,2000,94,349,422,2024-08-28_12h06.09.732,EXNAT_3_fMRI_Psychopy2023.1.3,2023.1.3,59.99808317586289,
0,0,0,0,,,,,,,,,,,#F989A2,877.0220010280609,118.27469396591187,None,None,None,582.5391102696046,text_01,201,1,1,1,Reading_Baseline_main_no_click,None,Vorjahren,,,,,OA05,001,no,1500,2000,94,349,422,2024-08-28_12h06.09.732,EXNAT_3_fMRI_Psychopy2023.1.3,2023.1.3,59.99808317586289,
0,0,0,0,,,,,,,,,,,#D292F3,877.6222760677338,118.87496900558472,None,None,None,609.581225080072,text_01,202,1,1,1,Reading_Baseline_main_no_click,None,ungewöhnlich,,,,,OA05,001,no,1500,2000,94,349,422,2024-08-28_12h06.09.732,EXNAT_3_fMRI_Psychopy2023.1.3,2023.1.3,59.99808317586289,
0,0,0,0,,,,,,,,,,,#2AB7EF,878.2385921478271,119.4912850856781,None,None,None,544.4253901074371,text_01,203,1,1,1,Reading_Baseline_main_no_click,None,stark.,,,,,OA05,001,no,1500,2000,94,349,422,2024-08-28_12h06.09.732,EXNAT_3_fMRI_Psychopy2023.1.3,2023.1.3,59.99808317586289,
0,0,0,0,,,,,,,,,,,#88BA3F,878.7884700298309,120.04116296768188,None,None,None,470.0,text_01,204,1,1,1,Reading_Baseline_main_no_click,None,Es,,,,,OA05,001,no,1500,2000,94,349,422,2024-08-28_12h06.09.732,EXNAT_3_fMRI_Psychopy2023.1.3,2023.1.3,59.99808317586289,
0,0,0,0,,,,,,,,,,,#F989A2,879.2718541622162,120.52454710006714,None,None,None,582.5391102696046,text_01,205,1,1,1,Reading_Baseline_main_no_click,None,sammelten,,,,,OA05,001,no,1500,2000,94,349,422,2024-08-28_12h06.09.732,EXNAT_3_fMRI_Psychopy2023.1.3,2023.1.3,59.99808317586289,
0,0,0,0,,,,,,,,,,,#2AB7EF,879.8715531826019,121.12424612045288,None,None,None,506.3116699452698,text_01,206,1,1,1,Reading_Baseline_main_no_click,None,sich,,,,,OA05,001,no,1500,2000,94,349,422,2024-08-28_12h06.09.732,EXNAT_3_fMRI_Psychopy2023.1.3,2023.1.3,59.99808317586289,
0,0,0,0,,,,,,,,,,,#88BA3F,880.3882400989532,121.6409330368042,None,None,None,527.2871637688054,text_01,207,1,1,1,Reading_Baseline_main_no_click,None,viele,,,,,OA05,001,no,1500,2000,94,349,422,2024-08-28_12h06.09.732,EXNAT_3_fMRI_Psychopy2023.1.3,2023.1.3,59.99808317586289,
0,0,0,0,,,,,,,,,,,#F989A2,880.9215979576111,122.17429089546204,None,None,None,544.4253901074371,text_01,208,1,1,1,Reading_Baseline_main_no_click,None,kleine,,,,,OA05,001,no,1500,2000,94,349,422,2024-08-28_12h06.09.732,EXNAT_3_fMRI_Psychopy2023.1.3,2023.1.3,59.99808317586289,
0,0,0,0,,,,,,,,,,,#2AB7EF,881.4714920520782,122.7241849899292,None,None,None,544.4253901074371,text_01,209,1,1,1,Reading_Baseline_main_no_click,None,Fische,,,,,OA05,001,no,1500,2000,94,349,422,2024-08-28_12h06.09.732,EXNAT_3_fMRI_Psychopy2023.1.3,2023.1.3,59.99808317586289,
0,0,0,0,,,,,,,,,,,#D292F3,882.021320104599,123.27401304244995,None,None,None,479.2695551348023,text_01,210,1,1,1,Reading_Baseline_main_no_click,None,vor,,,,,OA05,001,no,1500,2000,94,349,422,2024-08-28_12h06.09.732,EXNAT_3_fMRI_Psychopy2023.1.3,2023.1.3,59.99808317586289,
0,0,0,0,,,,,,,,,,,#F989A2,882.5047981739044,123.75749111175537,None,None,None,479.2695551348023,text_01,211,1,1,1,Reading_Baseline_main_no_click,None,der,,,,,OA05,001,no,1500,2000,94,349,422,2024-08-28_12h06.09.732,EXNAT_3_fMRI_Psychopy2023.1.3,2023.1.3,59.99808317586289,
0,0,0,0,,,,,,,,,,,#D292F3,882.9880621433258,124.24075508117676,None,None,None,544.4253901074371,text_01,212,1,1,1,Reading_Baseline_main_no_click,None,Küste.,,,,,OA05,001,no,1500,2000,94,349,422,2024-08-28_12h06.09.732,EXNAT_3_fMRI_Psychopy2023.1.3,2023.1.3,59.99808317586289,
0,0,0,0,,,,,,,,,,,#D292F3,883.5379130840302,124.7906060218811,None,None,None,479.2695551348023,text_01,213,1,1,1,Reading_Baseline_main_no_click,None,Die,,,,,OA05,001,no,1500,2000,94,349,422,2024-08-28_12h06.09.732,EXNAT_3_fMRI_Psychopy2023.1.3,2023.1.3,59.99808317586289,
0,0,0,0,,,,,,,,,,,#88BA3F,884.0213010311127,125.27399396896362,None,None,None,558.9155540111994,text_01,214,1,1,1,Reading_Baseline_main_no_click,None,Kalmare,,,,,OA05,001,no,1500,2000,94,349,422,2024-08-28_12h06.09.732,EXNAT_3_fMRI_Psychopy2023.1.3,2023.1.3,59.99808317586289,
0,0,0,0,,,,,,,,,,,#D292F3,884.5879700183868,125.8406629562378,None,None,None,544.4253901074371,text_01,215,1,1,1,Reading_Baseline_main_no_click,None,wurden,,,,,OA05,001,no,1500,2000,94,349,422,2024-08-28_12h06.09.732,EXNAT_3_fMRI_Psychopy2023.1.3,2023.1.3,59.99808317586289,
0,0,0,0,,,,,,,,,,,#88BA3F,885.1378891468048,126.39058208465576,None,None,None,558.9155540111994,text_01,216,1,1,1,Reading_Baseline_main_no_click,None,dadurch,,,,,OA05,001,no,1500,2000,94,349,422,2024-08-28_12h06.09.732,EXNAT_3_fMRI_Psychopy2023.1.3,2023.1.3,59.99808317586289,
0,0,0,0,,,,,,,,,,,#F989A2,885.7045221328735,126.95721507072449,None,None,None,558.9155540111994,text_01,217,1,1,1,Reading_Baseline_main_no_click,None,magisch,,,,,OA05,001,no,1500,2000,94,349,422,2024-08-28_12h06.09.732,EXNAT_3_fMRI_Psychopy2023.1.3,2023.1.3,59.99808317586289,
0,0,0,0,,,,,,,,,,,#2AB7EF,886.2711820602417,127.52387499809265,None,None,None,592.4429987414403,text_01,218,1,1,1,Reading_Baseline_main_no_click,None,angezogen.,,,,,OA05,001,no,1500,2000,94,349,422,2024-08-28_12h06.09.732,EXNAT_3_fMRI_Psychopy2023.1.3,2023.1.3,59.99808317586289,
0,0,0,0,,,,,,,,,,,#F989A2,886.8709120750427,128.12360501289368,None,None,None,479.2695551348023,text_01,219,1,1,1,Reading_Baseline_main_no_click,None,Die,,,,,OA05,001,no,1500,2000,94,349,422,2024-08-28_12h06.09.732,EXNAT_3_fMRI_Psychopy2023.1.3,2023.1.3,59.99808317586289,
0,0,0,0,,,,,,,,,,,#D292F3,887.3546540737152,128.60734701156616,None,None,None,558.9155540111994,text_01,220,1,1,1,Reading_Baseline_main_no_click,None,kleinen,,,,,OA05,001,no,1500,2000,94,349,422,2024-08-28_12h06.09.732,EXNAT_3_fMRI_Psychopy2023.1.3,2023.1.3,59.99808317586289,
0,0,0,0,,,,,,,,,,,#2AB7EF,887.9210050106049,129.1736979484558,None,None,None,544.4253901074371,text_01,221,1,1,1,Reading_Baseline_main_no_click,None,Fische,,,,,OA05,001,no,1500,2000,94,349,422,2024-08-28_12h06.09.732,EXNAT_3_fMRI_Psychopy2023.1.3,2023.1.3,59.99808317586289,
0,0,0,0,,,,,,,,,,,#2AB7EF,888.4710321426392,129.7237250804901,None,None,None,571.4675049179045,text_01,222,1,1,1,Reading_Baseline_main_no_click,None,bedeuten,,,,,OA05,001,no,1500,2000,94,349,422,2024-08-28_12h06.09.732,EXNAT_3_fMRI_Psychopy2023.1.3,2023.1.3,59.99808317586289,
0,0,0,0,,,,,,,,,,,#F989A2,889.0541429519653,130.30683588981628,None,None,None,479.2695551348023,text_01,223,1,1,1,Reading_Baseline_main_no_click,None,für,,,,,OA05,001,no,1500,2000,94,349,422,2024-08-28_12h06.09.732,EXNAT_3_fMRI_Psychopy2023.1.3,2023.1.3,59.99808317586289,
0,0,0,0,,,,,,,,,,,#88BA3F,889.537388086319,130.79008102416992,None,None,None,479.2695551348023,text_01,224,1,1,1,Reading_Baseline_main_no_click,None,sie,,,,,OA05,001,no,1500,2000,94,349,422,2024-08-28_12h06.09.732,EXNAT_3_fMRI_Psychopy2023.1.3,2023.1.3,59.99808317586289,
0,0,0,0,,,,,,,,,,,#D292F3,890.0208020210266,131.27349495887756,None,None,None,544.4253901074371,text_01,225,1,1,1,Reading_Baseline_main_no_click,None,reiche,,,,,OA05,001,no,1500,2000,94,349,422,2024-08-28_12h06.09.732,EXNAT_3_fMRI_Psychopy2023.1.3,2023.1.3,59.99808317586289,
0,0,0,0,,,,,,,,,,,#88BA3F,890.5707631111145,131.82345604896545,None,None,None,544.4253901074371,text_01,226,1,1,1,Reading_Baseline_main_no_click,None,Beute.,,,,,OA05,001,no,1500,2000,94,349,422,2024-08-28_12h06.09.732,EXNAT_3_fMRI_Psychopy2023.1.3,2023.1.3,59.99808317586289,
0,0,0,0,,,,,,,,,,,#F989A2,891.1205010414124,132.3731939792633,None,None,None,479.2695551348023,text_01,227,1,1,1,Reading_Baseline_main_no_click,None,Für,,,,,OA05,001,no,1500,2000,94,349,422,2024-08-28_12h06.09.732,EXNAT_3_fMRI_Psychopy2023.1.3,2023.1.3,59.99808317586289,
0,0,0,0,,,,,,,,,,,#D292F3,891.6040141582489,132.85670709609985,None,None,None,571.4675049179045,text_01,228,1,1,1,Reading_Baseline_main_no_click,None,Forscher,,,,,OA05,001,no,1500,2000,94,349,422,2024-08-28_12h06.09.732,EXNAT_3_fMRI_Psychopy2023.1.3,2023.1.3,59.99808317586289,
0,0,0,0,,,,,,,,,,,#F989A2,892.1872930526733,133.4399859905243,None,None,None,479.2695551348023,text_01,229,1,1,1,Reading_Baseline_main_no_click,None,ist,,,,,OA05,001,no,1500,2000,94,349,422,2024-08-28_12h06.09.732,EXNAT_3_fMRI_Psychopy2023.1.3,2023.1.3,59.99808317586289,
0,0,0,0,,,,,,,,,,,#2AB7EF,892.6704020500183,133.92309498786926,None,None,None,479.2695551348023,text_01,230,1,1,1,Reading_Baseline_main_no_click,None,das,,,,,OA05,001,no,1500,2000,94,349,422,2024-08-28_12h06.09.732,EXNAT_3_fMRI_Psychopy2023.1.3,2023.1.3,59.99808317586289,
0,0,0,0,,,,,,,,,,,#D292F3,893.1536159515381,134.40630888938904,None,None,None,479.2695551348023,text_01,231,1,1,1,Reading_Baseline_main_no_click,None,ein,,,,,OA05,001,no,1500,2000,94,349,422,2024-08-28_12h06.09.732,EXNAT_3_fMRI_Psychopy2023.1.3,2023.1.3,59.99808317586289,
0,0,0,0,,,,,,,,,,,#F989A2,893.6372499465942,134.8899428844452,None,None,None,592.4429987414403,text_01,232,1,1,1,Reading_Baseline_main_no_click,None,besonderer,,,,,OA05,001,no,1500,2000,94,349,422,2024-08-28_12h06.09.732,EXNAT_3_fMRI_Psychopy2023.1.3,2023.1.3,59.99808317586289,
0,0,0,0,,,,,,,,,,,#D292F3,894.2373340129852,135.49002695083618,None,None,None,601.4021556430469,text_01,233,1,1,1,Reading_Baseline_main_no_click,None,Glücksfall.,,,,,OA05,001,no,1500,2000,94,349,422,2024-08-28_12h06.09.732,EXNAT_3_fMRI_Psychopy2023.1.3,2023.1.3,59.99808317586289,
0,0,0,0,,,,,,,,,,,#2AB7EF,894.8538551330566,136.1065480709076,None,None,None,617.1052396013845,text_01,234,1,1,1,Reading_Baseline_main_no_click,None,Normalerweise,,,,,OA05,001,no,1500,2000,94,349,422,2024-08-28_12h06.09.732,EXNAT_3_fMRI_Psychopy2023.1.3,2023.1.3,59.99808317586289,
0,0,0,0,,,,,,,,,,,#D292F3,895.486848115921,136.73954105377197,None,None,None,506.3116699452698,text_01,235,1,1,1,Reading_Baseline_main_no_click,None,sind,,,,,OA05,001,no,1500,2000,94,349,422,2024-08-28_12h06.09.732,EXNAT_3_fMRI_Psychopy2023.1.3,2023.1.3,59.99808317586289,
0,0,0,0,,,,,,,,,,,#88BA3F,896.0034639835358,137.25615692138672,None,None,None,479.2695551348023,text_01,236,1,1,1,Reading_Baseline_main_no_click,None,die,,,,,OA05,001,no,1500,2000,94,349,422,2024-08-28_12h06.09.732,EXNAT_3_fMRI_Psychopy2023.1.3,2023.1.3,59.99808317586289,
0,0,0,0,,,,,,,,,,,#D292F3,896.4869070053101,137.739599943161,None,None,None,544.4253901074371,text_01,237,1,1,1,Reading_Baseline_main_no_click,None,großen,,,,,OA05,001,no,1500,2000,94,349,422,2024-08-28_12h06.09.732,EXNAT_3_fMRI_Psychopy2023.1.3,2023.1.3,59.99808317586289,
0,0,0,0,,,,,,,,,,,#2AB7EF,897.0370571613312,138.28975009918213,None,None,None,558.9155540111994,text_01,238,1,1,1,Reading_Baseline_main_no_click,None,Kalmare,,,,,OA05,001,no,1500,2000,94,349,422,2024-08-28_12h06.09.732,EXNAT_3_fMRI_Psychopy2023.1.3,2023.1.3,59.99808317586289,
0,0,0,0,,,,,,,,,,,#F989A2,897.603306055069,138.85599899291992,None,None,None,470.0,text_01,239,1,1,1,Reading_Baseline_main_no_click,None,so,,,,,OA05,001,no,1500,2000,94,349,422,2024-08-28_12h06.09.732,EXNAT_3_fMRI_Psychopy2023.1.3,2023.1.3,59.99808317586289,
0,0,0,0,,,,,,,,,,,#88BA3F,898.0867259502411,139.33941888809204,None,None,None,544.4253901074371,text_01,240,1,1,1,Reading_Baseline_main_no_click,None,schwer,,,,,OA05,001,no,1500,2000,94,349,422,2024-08-28_12h06.09.732,EXNAT_3_fMRI_Psychopy2023.1.3,2023.1.3,59.99808317586289,
0,0,0,0,,,,,,,,,,,#F989A2,898.6365690231323,139.88926196098328,None,None,None,479.2695551348023,text_01,241,1,1,1,Reading_Baseline_main_no_click,None,vor,,,,,OA05,001,no,1500,2000,94,349,422,2024-08-28_12h06.09.732,EXNAT_3_fMRI_Psychopy2023.1.3,2023.1.3,59.99808317586289,
0,0,0,0,,,,,,,,,,,#D292F3,899.1198830604553,140.37257599830627,None,None,None,479.2695551348023,text_01,242,1,1,1,Reading_Baseline_main_no_click,None,die,,,,,OA05,001,no,1500,2000,94,349,422,2024-08-28_12h06.09.732,EXNAT_3_fMRI_Psychopy2023.1.3,2023.1.3,59.99808317586289,
0,0,0,0,,,,,,,,,,,#D292F3,899.6033551692963,140.85604810714722,None,None,None,544.4253901074371,text_01,243,1,1,1,Reading_Baseline_main_no_click,None,Kamera,,,,,OA05,001,no,1500,2000,94,349,422,2024-08-28_12h06.09.732,EXNAT_3_fMRI_Psychopy2023.1.3,2023.1.3,59.99808317586289,
0,0,0,0,,,,,,,,,,,#88BA3F,900.1530451774597,141.40573811531067,None,None,None,470.0,text_01,244,1,1,1,Reading_Baseline_main_no_click,None,zu,,,,,OA05,001,no,1500,2000,94,349,422,2024-08-28_12h06.09.732,EXNAT_3_fMRI_Psychopy2023.1.3,2023.1.3,59.99808317586289,
0,0,0,0,,,,,,,,,,,#2AB7EF,900.6366150379181,141.88930797576904,None,None,None,582.5391102696046,text_01,245,1,1,1,Reading_Baseline_main_no_click,None,"bekommen,",,,,,OA05,001,no,1500,2000,94,349,422,2024-08-28_12h06.09.732,EXNAT_3_fMRI_Psychopy2023.1.3,2023.1.3,59.99808317586289,
0,0,0,0,,,,,,,,,,,#D292F3,901.2363469600677,142.4890398979187,None,None,None,506.3116699452698,text_01,246,1,1,1,Reading_Baseline_main_no_click,None,dass,,,,,OA05,001,no,1500,2000,94,349,422,2024-08-28_12h06.09.732,EXNAT_3_fMRI_Psychopy2023.1.3,2023.1.3,59.99808317586289,
0,0,0,0,,,,,,,,,,,#F989A2,901.7531449794769,143.00583791732788,None,None,None,571.4675049179045,text_01,247,1,1,1,Reading_Baseline_main_no_click,None,Forscher,,,,,OA05,001,no,1500,2000,94,349,422,2024-08-28_12h06.09.732,EXNAT_3_fMRI_Psychopy2023.1.3,2023.1.3,59.99808317586289,
0,0,0,0,,,,,,,,,,,#88BA3F,902.3366401195526,143.58933305740356,None,None,None,582.5391102696046,text_01,248,1,1,1,Reading_Baseline_main_no_click,None,teilweise,,,,,OA05,001,no,1500,2000,94,349,422,2024-08-28_12h06.09.732,EXNAT_3_fMRI_Psychopy2023.1.3,2023.1.3,59.99808317586289,
0,0,0,0,,,,,,,,,,,#2AB7EF,902.9362320899963,144.1889250278473,None,None,None,479.2695551348023,text_01,249,1,1,1,Reading_Baseline_main_no_click,None,auf,,,,,OA05,001,no,1500,2000,94,349,422,2024-08-28_12h06.09.732,EXNAT_3_fMRI_Psychopy2023.1.3,2023.1.3,59.99808317586289,
0,0,0,0,,,,,,,,,,,#F989A2,903.41965508461,144.67234802246094,None,None,None,571.4675049179045,text_01,250,1,1,1,Reading_Baseline_main_no_click,None,seltsame,,,,,OA05,001,no,1500,2000,94,349,422,2024-08-28_12h06.09.732,EXNAT_3_fMRI_Psychopy2023.1.3,2023.1.3,59.99808317586289,
0,0,0,0,,,,,,,,,,,#88BA3F,904.0031061172485,145.2557990550995,None,None,None,527.2871637688054,text_01,251,1,1,1,Reading_Baseline_main_no_click,None,Ideen,,,,,OA05,001,no,1500,2000,94,349,422,2024-08-28_12h06.09.732,EXNAT_3_fMRI_Psychopy2023.1.3,2023.1.3,59.99808317586289,
0,0,0,0,,,,,,,,,,,#2AB7EF,904.5361790657043,145.7888720035553,None,None,None,558.9155540111994,text_01,252,1,1,1,Reading_Baseline_main_no_click,None,kommen.,,,,,OA05,001,no,1500,2000,94,349,422,2024-08-28_12h06.09.732,EXNAT_3_fMRI_Psychopy2023.1.3,2023.1.3,59.99808317586289,
0,0,0,0,,,,,,,,,,,#88BA3F,905.1028101444244,146.3555030822754,None,None,None,479.2695551348023,text_01,253,1,1,1,Reading_Baseline_main_no_click,None,Ein,,,,,OA05,001,no,1500,2000,94,349,422,2024-08-28_12h06.09.732,EXNAT_3_fMRI_Psychopy2023.1.3,2023.1.3,59.99808317586289,
0,0,0,0,,,,,,,,,,,#F989A2,905.5860900878906,146.83878302574158,None,None,None,558.9155540111994,text_01,254,1,1,1,Reading_Baseline_main_no_click,None,Biologe,,,,,OA05,001,no,1500,2000,94,349,422,2024-08-28_12h06.09.732,EXNAT_3_fMRI_Psychopy2023.1.3,2023.1.3,59.99808317586289,
0,0,0,0,,,,,,,,,,,#D292F3,906.1525001525879,147.40519309043884,None,None,None,479.2695551348023,text_01,255,1,1,1,Reading_Baseline_main_no_click,None,aus,,,,,OA05,001,no,1500,2000,94,349,422,2024-08-28_12h06.09.732,EXNAT_3_fMRI_Psychopy2023.1.3,2023.1.3,59.99808317586289,
0,0,0,0,,,,,,,,,,,#2AB7EF,906.6360759735107,147.8887689113617,None,None,None,592.4429987414403,text_01,256,1,1,1,Reading_Baseline_main_no_click,None,Neuseeland,,,,,OA05,001,no,1500,2000,94,349,422,2024-08-28_12h06.09.732,EXNAT_3_fMRI_Psychopy2023.1.3,2023.1.3,59.99808317586289,
0,0,0,0,,,,,,,,,,,#F989A2,907.2359850406647,148.48867797851562,None,None,None,506.3116699452698,text_01,257,1,1,1,Reading_Baseline_main_no_click,None,etwa,,,,,OA05,001,no,1500,2000,94,349,422,2024-08-28_12h06.09.732,EXNAT_3_fMRI_Psychopy2023.1.3,2023.1.3,59.99808317586289,
0,0,0,0,,,,,,,,,,,#D292F3,907.7524089813232,149.0051019191742,None,None,None,506.3116699452698,text_01,258,1,1,1,Reading_Baseline_main_no_click,None,will,,,,,OA05,001,no,1500,2000,94,349,422,2024-08-28_12h06.09.732,EXNAT_3_fMRI_Psychopy2023.1.3,2023.1.3,59.99808317586289,
0,0,0,0,,,,,,,,,,,#88BA3F,908.2692291736603,149.52192211151123,None,None,None,592.4429987414403,text_01,259,1,1,1,Reading_Baseline_main_no_click,None,"versuchen,",,,,,OA05,001,no,1500,2000,94,349,422,2024-08-28_12h06.09.732,EXNAT_3_fMRI_Psychopy2023.1.3,2023.1.3,59.99808317586289,
0,0,0,0,,,,,,,,,,,#D292F3,908.8690619468689,150.12175488471985,None,None,None,479.2695551348023,text_01,260,1,1,1,Reading_Baseline_main_no_click,None,den,,,,,OA05,001,no,1500,2000,94,349,422,2024-08-28_12h06.09.732,EXNAT_3_fMRI_Psychopy2023.1.3,2023.1.3,59.99808317586289,
0,0,0,0,,,,,,,,,,,#88BA3F,909.3524861335754,150.6051790714264,None,None,None,592.4429987414403,text_01,261,1,1,1,Reading_Baseline_main_no_click,None,legendären,,,,,OA05,001,no,1500,2000,94,349,422,2024-08-28_12h06.09.732,EXNAT_3_fMRI_Psychopy2023.1.3,2023.1.3,59.99808317586289,
0,0,0,0,,,,,,,,,,,#2AB7EF,909.9526870250702,151.20537996292114,None,None,None,609.581225080072,text_01,262,1,1,1,Reading_Baseline_main_no_click,None,Riesenkalmar,,,,,OA05,001,no,1500,2000,94,349,422,2024-08-28_12h06.09.732,EXNAT_3_fMRI_Psychopy2023.1.3,2023.1.3,59.99808317586289,
0,0,0,0,,,,,,,,,,,#2AB7EF,910.5688290596008,151.82152199745178,None,None,None,479.2695551348023,text_01,263,1,1,1,Reading_Baseline_main_no_click,None,mit,,,,,OA05,001,no,1500,2000,94,349,422,2024-08-28_12h06.09.732,EXNAT_3_fMRI_Psychopy2023.1.3,2023.1.3,59.99808317586289,
0,0,0,0,,,,,,,,,,,#F989A2,911.0529839992523,152.30567693710327,None,None,None,624.0713889838343,text_01,264,1,1,1,Reading_Baseline_main_no_click,None,Sexualhormonen,,,,,OA05,001,no,1500,2000,94,349,422,2024-08-28_12h06.09.732,EXNAT_3_fMRI_Psychopy2023.1.3,2023.1.3,59.99808317586289,
0,0,0,0,,,,,,,,,,,#2AB7EF,911.6856219768524,152.93831491470337,None,None,None,479.2695551348023,text_01,265,1,1,1,Reading_Baseline_main_no_click,None,vor,,,,,OA05,001,no,1500,2000,94,349,422,2024-08-28_12h06.09.732,EXNAT_3_fMRI_Psychopy2023.1.3,2023.1.3,59.99808317586289,
0,0,0,0,,,,,,,,,,,#88BA3F,912.1685991287231,153.4212920665741,None,None,None,479.2695551348023,text_01,266,1,1,1,Reading_Baseline_main_no_click,None,die,,,,,OA05,001,no,1500,2000,94,349,422,2024-08-28_12h06.09.732,EXNAT_3_fMRI_Psychopy2023.1.3,2023.1.3,59.99808317586289,
0,0,0,0,,,,,,,,,,,#F989A2,912.6520850658417,153.90477800369263,None,None,None,527.2871637688054,text_01,267,1,1,1,Reading_Baseline_main_no_click,None,Linse,,,,,OA05,001,no,1500,2000,94,349,422,2024-08-28_12h06.09.732,EXNAT_3_fMRI_Psychopy2023.1.3,2023.1.3,59.99808317586289,
0,0,0,0,,,,,,,,,,,#D292F3,913.1852061748505,154.43789911270142,None,None,None,470.0,text_01,268,1,1,1,Reading_Baseline_main_no_click,None,zu,,,,,OA05,001,no,1500,2000,94,349,422,2024-08-28_12h06.09.732,EXNAT_3_fMRI_Psychopy2023.1.3,2023.1.3,59.99808317586289,
0,0,0,0,,,,,,,,,,,#F989A2,913.6688179969788,154.9215109348297,None,None,None,558.9155540111994,text_01,269,1,1,1,Reading_Baseline_main_no_click,None,locken.,,,,,OA05,001,no,1500,2000,94,349,422,2024-08-28_12h06.09.732,EXNAT_3_fMRI_Psychopy2023.1.3,2023.1.3,59.99808317586289,
0,0,0,0,,,,,,,,,,,#88BA3F,914.235160112381,155.48785305023193,None,None,None,479.2695551348023,text_01,270,1,1,1,Reading_Baseline_main_no_click,None,Der,,,,,OA05,001,no,1500,2000,94,349,422,2024-08-28_12h06.09.732,EXNAT_3_fMRI_Psychopy2023.1.3,2023.1.3,59.99808317586289,
0,0,0,0,,,,,,,,,,,#2AB7EF,914.7189409732819,155.9716339111328,None,None,None,609.581225080072,text_01,271,1,1,1,Reading_Baseline_main_no_click,None,Riesenkalmar,,,,,OA05,001,no,1500,2000,94,349,422,2024-08-28_12h06.09.732,EXNAT_3_fMRI_Psychopy2023.1.3,2023.1.3,59.99808317586289,
0,0,0,0,,,,,,,,,,,#88BA3F,915.3350830078125,156.58777594566345,None,None,None,479.2695551348023,text_01,272,1,1,1,Reading_Baseline_main_no_click,None,ist,,,,,OA05,001,no,1500,2000,94,349,422,2024-08-28_12h06.09.732,EXNAT_3_fMRI_Psychopy2023.1.3,2023.1.3,59.99808317586289,
0,0,0,0,,,,,,,,,,,#D292F3,915.818470954895,157.07116389274597,None,None,None,479.2695551348023,text_01,273,1,1,1,Reading_Baseline_main_no_click,None,mit,,,,,OA05,001,no,1500,2000,94,349,422,2024-08-28_12h06.09.732,EXNAT_3_fMRI_Psychopy2023.1.3,2023.1.3,59.99808317586289,
0,0,0,0,,,,,,,,,,,#F989A2,916.3018450737,157.5545380115509,None,None,None,479.2695551348023,text_01,274,1,1,1,Reading_Baseline_main_no_click,None,bis,,,,,OA05,001,no,1500,2000,94,349,422,2024-08-28_12h06.09.732,EXNAT_3_fMRI_Psychopy2023.1.3,2023.1.3,59.99808317586289,
0,0,0,0,,,,,,,,,,,#2AB7EF,916.7849140167236,158.03760695457458,None,None,None,470.0,text_01,275,1,1,1,Reading_Baseline_main_no_click,None,zu,,,,,OA05,001,no,1500,2000,94,349,422,2024-08-28_12h06.09.732,EXNAT_3_fMRI_Psychopy2023.1.3,2023.1.3,59.99808317586289,
0,0,0,0,,,,,,,,,,,#D292F3,917.268187046051,158.52087998390198,None,None,None,470.0,text_01,276,1,1,1,Reading_Baseline_main_no_click,None,20,,,,,OA05,001,no,1500,2000,94,349,422,2024-08-28_12h06.09.732,EXNAT_3_fMRI_Psychopy2023.1.3,2023.1.3,59.99808317586289,
0,0,0,0,,,,,,,,,,,#D292F3,917.751715183258,159.004408121109,None,None,None,544.4253901074371,text_01,277,1,1,1,Reading_Baseline_main_no_click,None,Metern,,,,,OA05,001,no,1500,2000,94,349,422,2024-08-28_12h06.09.732,EXNAT_3_fMRI_Psychopy2023.1.3,2023.1.3,59.99808317586289,
0,0,0,0,,,,,,,,,,,#F989A2,918.3016209602356,159.55431389808655,None,None,None,527.2871637688054,text_01,278,1,1,1,Reading_Baseline_main_no_click,None,Länge,,,,,OA05,001,no,1500,2000,94,349,422,2024-08-28_12h06.09.732,EXNAT_3_fMRI_Psychopy2023.1.3,2023.1.3,59.99808317586289,
0,0,0,0,,,,,,,,,,,#D292F3,918.8347930908203,160.08748602867126,None,None,None,479.2695551348023,text_01,279,1,1,1,Reading_Baseline_main_no_click,None,und,,,,,OA05,001,no,1500,2000,94,349,422,2024-08-28_12h06.09.732,EXNAT_3_fMRI_Psychopy2023.1.3,2023.1.3,59.99808317586289,
0,0,0,0,,,,,,,,,,,#D292F3,919.3182129859924,160.57090592384338,None,None,None,527.2871637688054,text_01,280,1,1,1,Reading_Baseline_main_no_click,None,einer,,,,,OA05,001,no,1500,2000,94,349,422,2024-08-28_12h06.09.732,EXNAT_3_fMRI_Psychopy2023.1.3,2023.1.3,59.99808317586289,
0,0,0,0,,,,,,,,,,,#88BA3F,919.8515400886536,161.10423302650452,None,None,None,544.4253901074371,text_01,281,1,1,1,Reading_Baseline_main_no_click,None,halben,,,,,OA05,001,no,1500,2000,94,349,422,2024-08-28_12h06.09.732,EXNAT_3_fMRI_Psychopy2023.1.3,2023.1.3,59.99808317586289,
0,0,0,0,,,,,,,,,,,#D292F3,920.4014401435852,161.65413308143616,None,None,None,527.2871637688054,text_01,282,1,1,1,Reading_Baseline_main_no_click,None,Tonne,,,,,OA05,001,no,1500,2000,94,349,422,2024-08-28_12h06.09.732,EXNAT_3_fMRI_Psychopy2023.1.3,2023.1.3,59.99808317586289,
0,0,0,0,,,,,,,,,,,#D292F3,920.935024023056,162.18771696090698,None,None,None,558.9155540111994,text_01,283,1,1,1,Reading_Baseline_main_no_click,None,Gewicht,,,,,OA05,001,no,1500,2000,94,349,422,2024-08-28_12h06.09.732,EXNAT_3_fMRI_Psychopy2023.1.3,2023.1.3,59.99808317586289,
0,0,0,0,,,,,,,,,,,#2AB7EF,921.5013780593872,162.75407099723816,None,None,None,479.2695551348023,text_01,284,1,1,1,Reading_Baseline_main_no_click,None,das,,,,,OA05,001,no,1500,2000,94,349,422,2024-08-28_12h06.09.732,EXNAT_3_fMRI_Psychopy2023.1.3,2023.1.3,59.99808317586289,
0,0,0,0,,,,,,,,,,,#F989A2,921.984649181366,163.23734211921692,None,None,None,544.4253901074371,text_01,285,1,1,1,Reading_Baseline_main_no_click,None,größte,,,,,OA05,001,no,1500,2000,94,349,422,2024-08-28_12h06.09.732,EXNAT_3_fMRI_Psychopy2023.1.3,2023.1.3,59.99808317586289,
0,0,0,0,,,,,,,,,,,#2AB7EF,922.5346159934998,163.7873089313507,None,None,None,592.4429987414403,text_01,286,1,1,1,Reading_Baseline_main_no_click,None,wirbellose,,,,,OA05,001,no,1500,2000,94,349,422,2024-08-28_12h06.09.732,EXNAT_3_fMRI_Psychopy2023.1.3,2023.1.3,59.99808317586289,
0,0,0,0,,,,,,,,,,,#D292F3,923.1344871520996,164.38718008995056,None,None,None,506.3116699452698,text_01,287,1,1,1,Reading_Baseline_main_no_click,None,Tier,,,,,OA05,001,no,1500,2000,94,349,422,2024-08-28_12h06.09.732,EXNAT_3_fMRI_Psychopy2023.1.3,2023.1.3,59.99808317586289,
0,0,0,0,,,,,,,,,,,#F989A2,923.6510169506073,164.90370988845825,None,None,None,479.2695551348023,text_01,288,1,1,1,Reading_Baseline_main_no_click,None,der,,,,,OA05,001,no,1500,2000,94,349,422,2024-08-28_12h06.09.732,EXNAT_3_fMRI_Psychopy2023.1.3,2023.1.3,59.99808317586289,
0,0,0,0,,,,,,,,,,,#F989A2,924.1343891620636,165.38708209991455,None,None,None,527.2871637688054,text_01,289,1,1,1,Reading_Baseline_main_no_click,None,Welt.,,,,,OA05,001,no,1500,2000,94,349,422,2024-08-28_12h06.09.732,EXNAT_3_fMRI_Psychopy2023.1.3,2023.1.3,59.99808317586289,
0,0,0,0,,,,,,,,,,,#2AB7EF,924.6677811145782,165.9204740524292,None,None,None,544.4253901074371,text_01,290,1,1,1,Reading_Baseline_main_no_click,None,Bisher,,,,,OA05,001,no,1500,2000,94,349,422,2024-08-28_12h06.09.732,EXNAT_3_fMRI_Psychopy2023.1.3,2023.1.3,59.99808317586289,
0,0,0,0,,,,,,,,,,,#F989A2,925.2176811695099,166.47037410736084,None,None,None,527.2871637688054,text_01,291,1,1,1,Reading_Baseline_main_no_click,None,wurde,,,,,OA05,001,no,1500,2000,94,349,422,2024-08-28_12h06.09.732,EXNAT_3_fMRI_Psychopy2023.1.3,2023.1.3,59.99808317586289,
0,0,0,0,,,,,,,,,,,#88BA3F,925.7510001659393,167.00369310379028,None,None,None,470.0,text_01,292,1,1,1,Reading_Baseline_main_no_click,None,er,,,,,OA05,001,no,1500,2000,94,349,422,2024-08-28_12h06.09.732,EXNAT_3_fMRI_Psychopy2023.1.3,2023.1.3,59.99808317586289,
0,0,0,0,,,,,,,,,,,#88BA3F,926.2341320514679,167.48682498931885,None,None,None,506.3116699452698,text_01,293,1,1,1,Reading_Baseline_main_no_click,None,aber,,,,,OA05,001,no,1500,2000,94,349,422,2024-08-28_12h06.09.732,EXNAT_3_fMRI_Psychopy2023.1.3,2023.1.3,59.99808317586289,
0,0,0,0,,,,,,,,,,,#2AB7EF,926.7509579658508,168.00365090370178,None,None,None,506.3116699452698,text_01,294,1,1,1,Reading_Baseline_main_no_click,None,noch,,,,,OA05,001,no,1500,2000,94,349,422,2024-08-28_12h06.09.732,EXNAT_3_fMRI_Psychopy2023.1.3,2023.1.3,59.99808317586289,
0,0,0,0,,,,,,,,,,,#D292F3,927.2673201560974,168.52001309394836,None,None,None,479.2695551348023,text_01,295,1,1,1,Reading_Baseline_main_no_click,None,nie,,,,,OA05,001,no,1500,2000,94,349,422,2024-08-28_12h06.09.732,EXNAT_3_fMRI_Psychopy2023.1.3,2023.1.3,59.99808317586289,
0,0,0,0,,,,,,,,,,,#D292F3,927.7508549690247,169.0035479068756,None,None,None,582.5391102696046,text_01,296,1,1,1,Reading_Baseline_main_no_click,None,innerhalb,,,,,OA05,001,no,1500,2000,94,349,422,2024-08-28_12h06.09.732,EXNAT_3_fMRI_Psychopy2023.1.3,2023.1.3,59.99808317586289,
0,0,0,0,,,,,,,,,,,#88BA3F,928.3507490158081,169.60344195365906,None,None,None,544.4253901074371,text_01,297,1,1,1,Reading_Baseline_main_no_click,None,seines,,,,,OA05,001,no,1500,2000,94,349,422,2024-08-28_12h06.09.732,EXNAT_3_fMRI_Psychopy2023.1.3,2023.1.3,59.99808317586289,
0,0,0,0,,,,,,,,,,,#2AB7EF,928.9008331298828,170.15352606773376,None,None,None,601.4021556430469,text_01,298,1,1,1,Reading_Baseline_main_no_click,None,natürlichen,,,,,OA05,001,no,1500,2000,94,349,422,2024-08-28_12h06.09.732,EXNAT_3_fMRI_Psychopy2023.1.3,2023.1.3,59.99808317586289,
0,0,0,0,,,,,,,,,,,#F989A2,929.5174741744995,170.77016711235046,None,None,None,601.4021556430469,text_01,299,1,1,1,Reading_Baseline_main_no_click,None,Lebensraums,,,,,OA05,001,no,1500,2000,94,349,422,2024-08-28_12h06.09.732,EXNAT_3_fMRI_Psychopy2023.1.3,2023.1.3,59.99808317586289,
0,0,0,0,,,,,,,,,,,#88BA3F,930.1339740753174,171.38666701316833,None,None,None,571.4675049179045,text_01,300,1,1,1,Reading_Baseline_main_no_click,None,gefilmt.,,,,,OA05,001,no,1500,2000,94,349,422,2024-08-28_12h06.09.732,EXNAT_3_fMRI_Psychopy2023.1.3,2023.1.3,59.99808317586289,
0,0,0,0,,,,,,,,,,,,930.7653980255127,172.01809096336365,,,,,text_01,,1,1,1,Reading_Baseline_main_no_click,None,,Q1,NA,NA,False,OA05,001,no,1500,2000,94,349,422,2024-08-28_12h06.09.732,EXNAT_3_fMRI_Psychopy2023.1.3,2023.1.3,59.99808317586289,
0,0,0,0,,,,,,,,,,,,940.811980009079,182.06467294692993,,,,,text_01,,1,1,1,Reading_Baseline_main_no_click,None,,Q2,4,d,True,OA05,001,no,1500,2000,94,349,422,2024-08-28_12h06.09.732,EXNAT_3_fMRI_Psychopy2023.1.3,2023.1.3,59.99808317586289,
0,0,0,0,,,,,,,,,,,,946.4865510463715,187.7392439842224,,,,,text_01,,1,1,1,Reading_Baseline_main_no_click,None,,Q3,1,a,True,OA05,001,no,1500,2000,94,349,422,2024-08-28_12h06.09.732,EXNAT_3_fMRI_Psychopy2023.1.3,2023.1.3,59.99808317586289,
0,0,0,0,,,,,,,,,,,,,,,,,,,,,,,,,,,,,,OA05,001,no,1500,2000,94,349,422,2024-08-28_12h06.09.732,EXNAT_3_fMRI_Psychopy2023.1.3,2023.1.3,59.99808317586289,
1,0,1,0,,,,,,,,,,,#D292F3,959.5697951316833,200.8224880695343,None,None,None,609.581225080072,pseudo_text_04,1,2,1,2,Reading_pseudotext_no_click,None,Karstfronnde,,,,,OA05,001,no,1500,2000,94,349,422,2024-08-28_12h06.09.732,EXNAT_3_fMRI_Psychopy2023.1.3,2023.1.3,59.99808317586289,
1,0,1,0,,,,,,,,,,,#2AB7EF,960.1817841529846,201.43447709083557,None,None,None,479.2695551348023,pseudo_text_04,2,2,1,2,Reading_pseudotext_no_click,None,und,,,,,OA05,001,no,1500,2000,94,349,422,2024-08-28_12h06.09.732,EXNAT_3_fMRI_Psychopy2023.1.3,2023.1.3,59.99808317586289,
1,0,1,0,,,,,,,,,,,#F989A2,960.6660721302032,201.9187650680542,None,None,None,630.5567189036078,pseudo_text_04,3,2,1,2,Reading_pseudotext_no_click,None,Argtumkeifhaber,,,,,OA05,001,no,1500,2000,94,349,422,2024-08-28_12h06.09.732,EXNAT_3_fMRI_Psychopy2023.1.3,2023.1.3,59.99808317586289,
1,0,1,0,,,,,,,,,,,#2AB7EF,961.3144130706787,202.56710600852966,None,None,None,479.2695551348023,pseudo_text_04,4,2,1,2,Reading_pseudotext_no_click,None,aus,,,,,OA05,001,no,1500,2000,94,349,422,2024-08-28_12h06.09.732,EXNAT_3_fMRI_Psychopy2023.1.3,2023.1.3,59.99808317586289,
1,0,1,0,,,,,,,,,,,#88BA3F,961.7980461120605,203.0507390499115,None,None,None,527.2871637688054,pseudo_text_04,5,2,1,2,Reading_pseudotext_no_click,None,asser,,,,,OA05,001,no,1500,2000,94,349,422,2024-08-28_12h06.09.732,EXNAT_3_fMRI_Psychopy2023.1.3,2023.1.3,59.99808317586289,
1,0,1,0,,,,,,,,,,,#2AB7EF,962.3322269916534,203.5849199295044,None,None,None,506.3116699452698,pseudo_text_04,6,2,1,2,Reading_pseudotext_no_click,None,Felt,,,,,OA05,001,no,1500,2000,94,349,422,2024-08-28_12h06.09.732,EXNAT_3_fMRI_Psychopy2023.1.3,2023.1.3,59.99808317586289,
1,0,1,0,,,,,,,,,,,#88BA3F,962.8476350307465,204.1003279685974,None,None,None,506.3116699452698,pseudo_text_04,7,2,1,2,Reading_pseudotext_no_click,None,hind,,,,,OA05,001,no,1500,2000,94,349,422,2024-08-28_12h06.09.732,EXNAT_3_fMRI_Psychopy2023.1.3,2023.1.3,59.99808317586289,
1,0,1,0,,,,,,,,,,,#F989A2,963.3644561767578,204.61714911460876,None,None,None,470.0,pseudo_text_04,8,2,1,2,Reading_pseudotext_no_click,None,am,,,,,OA05,001,no,1500,2000,94,349,422,2024-08-28_12h06.09.732,EXNAT_3_fMRI_Psychopy2023.1.3,2023.1.3,59.99808317586289,
1,0,1,0,,,,,,,,,,,#88BA3F,963.8484799861908,205.10117292404175,None,None,None,592.4429987414403,pseudo_text_04,9,2,1,2,Reading_pseudotext_no_click,None,Gospenelle,,,,,OA05,001,no,1500,2000,94,349,422,2024-08-28_12h06.09.732,EXNAT_3_fMRI_Psychopy2023.1.3,2023.1.3,59.99808317586289,
1,0,1,0,,,,,,,,,,,#F989A2,964.447585105896,205.70027804374695,None,None,None,470.0,pseudo_text_04,10,2,1,2,Reading_pseudotext_no_click,None,in,,,,,OA05,001,no,1500,2000,94,349,422,2024-08-28_12h06.09.732,EXNAT_3_fMRI_Psychopy2023.1.3,2023.1.3,59.99808317586289,
1,0,1,0,,,,,,,,,,,#D292F3,964.931389093399,206.18408203125,None,None,None,506.3116699452698,pseudo_text_04,11,2,1,2,Reading_pseudotext_no_click,None,Höln,,,,,OA05,001,no,1500,2000,94,349,422,2024-08-28_12h06.09.732,EXNAT_3_fMRI_Psychopy2023.1.3,2023.1.3,59.99808317586289,
1,0,1,0,,,,,,,,,,,#D292F3,965.4481000900269,206.7007930278778,None,None,None,617.1052396013845,pseudo_text_04,12,2,1,2,Reading_pseudotext_no_click,None,"eingegrönken,",,,,,OA05,001,no,1500,2000,94,349,422,2024-08-28_12h06.09.732,EXNAT_3_fMRI_Psychopy2023.1.3,2023.1.3,59.99808317586289,
1,0,1,0,,,,,,,,,,,#2AB7EF,966.0808100700378,207.3335030078888,None,None,None,470.0,pseudo_text_04,13,2,1,2,Reading_pseudotext_no_click,None,um,,,,,OA05,001,no,1500,2000,94,349,422,2024-08-28_12h06.09.732,EXNAT_3_fMRI_Psychopy2023.1.3,2023.1.3,59.99808317586289,
1,0,1,0,,,,,,,,,,,#D292F3,966.5641579627991,207.81685090065002,None,None,None,479.2695551348023,pseudo_text_04,14,2,1,2,Reading_pseudotext_no_click,None,das,,,,,OA05,001,no,1500,2000,94,349,422,2024-08-28_12h06.09.732,EXNAT_3_fMRI_Psychopy2023.1.3,2023.1.3,59.99808317586289,
1,0,1,0,,,,,,,,,,,#88BA3F,967.0481400489807,208.30083298683167,None,None,None,601.4021556430469,pseudo_text_04,15,2,1,2,Reading_pseudotext_no_click,None,fenotzierte,,,,,OA05,001,no,1500,2000,94,349,422,2024-08-28_12h06.09.732,EXNAT_3_fMRI_Psychopy2023.1.3,2023.1.3,59.99808317586289,
1,0,1,0,,,,,,,,,,,#F989A2,967.6647109985352,208.9174039363861,None,None,None,617.1052396013845,pseudo_text_04,16,2,1,2,Reading_pseudotext_no_click,None,Karstnestiwol,,,,,OA05,001,no,1500,2000,94,349,422,2024-08-28_12h06.09.732,EXNAT_3_fMRI_Psychopy2023.1.3,2023.1.3,59.99808317586289,
1,0,1,0,,,,,,,,,,,#F989A2,968.29727602005,209.549968957901,None,None,None,470.0,pseudo_text_04,17,2,1,2,Reading_pseudotext_no_click,None,zu,,,,,OA05,001,no,1500,2000,94,349,422,2024-08-28_12h06.09.732,EXNAT_3_fMRI_Psychopy2023.1.3,2023.1.3,59.99808317586289,
1,0,1,0,,,,,,,,,,,#88BA3F,968.7809541225433,210.0336470603943,None,None,None,558.9155540111994,pseudo_text_04,18,2,1,2,Reading_pseudotext_no_click,None,"seieln,",,,,,OA05,001,no,1500,2000,94,349,422,2024-08-28_12h06.09.732,EXNAT_3_fMRI_Psychopy2023.1.3,2023.1.3,59.99808317586289,
1,0,1,0,,,,,,,,,,,#D292F3,969.3474221229553,210.60011506080627,None,None,None,479.2695551348023,pseudo_text_04,19,2,1,2,Reading_pseudotext_no_click,None,das,,,,,OA05,001,no,1500,2000,94,349,422,2024-08-28_12h06.09.732,EXNAT_3_fMRI_Psychopy2023.1.3,2023.1.3,59.99808317586289,
1,0,1,0,,,,,,,,,,,#D292F3,969.8306829929352,211.08337593078613,None,None,None,479.2695551348023,pseudo_text_04,20,2,1,2,Reading_pseudotext_no_click,None,die,,,,,OA05,001,no,1500,2000,94,349,422,2024-08-28_12h06.09.732,EXNAT_3_fMRI_Psychopy2023.1.3,2023.1.3,59.99808317586289,
1,0,1,0,,,,,,,,,,,#D292F3,970.314619064331,211.567312002182,None,None,None,601.4021556430469,pseudo_text_04,21,2,1,2,Reading_pseudotext_no_click,None,biedfältige,,,,,OA05,001,no,1500,2000,94,349,422,2024-08-28_12h06.09.732,EXNAT_3_fMRI_Psychopy2023.1.3,2023.1.3,59.99808317586289,
1,0,1,0,,,,,,,,,,,#88BA3F,970.9308831691742,212.18357610702515,None,None,None,601.4021556430469,pseudo_text_04,22,2,1,2,Reading_pseudotext_no_click,None,Argtumqueme,,,,,OA05,001,no,1500,2000,94,349,422,2024-08-28_12h06.09.732,EXNAT_3_fMRI_Psychopy2023.1.3,2023.1.3,59.99808317586289,
1,0,1,0,,,,,,,,,,,#F989A2,971.5468740463257,212.79956698417664,None,None,None,479.2695551348023,pseudo_text_04,23,2,1,2,Reading_pseudotext_no_click,None,der,,,,,OA05,001,no,1500,2000,94,349,422,2024-08-28_12h06.09.732,EXNAT_3_fMRI_Psychopy2023.1.3,2023.1.3,59.99808317586289,
1,0,1,0,,,,,,,,,,,#2AB7EF,972.0310649871826,213.28375792503357,None,None,None,527.2871637688054,pseudo_text_04,24,2,1,2,Reading_pseudotext_no_click,None,Stoyt,,,,,OA05,001,no,1500,2000,94,349,422,2024-08-28_12h06.09.732,EXNAT_3_fMRI_Psychopy2023.1.3,2023.1.3,59.99808317586289,
1,0,1,0,,,,,,,,,,,#2AB7EF,972.5639100074768,213.81660294532776,None,None,None,624.0713889838343,pseudo_text_04,25,2,1,2,Reading_pseudotext_no_click,None,reszösennielt.,,,,,OA05,001,no,1500,2000,94,349,422,2024-08-28_12h06.09.732,EXNAT_3_fMRI_Psychopy2023.1.3,2023.1.3,59.99808317586289,
1,0,1,0,,,,,,,,,,,#D292F3,973.1970400810242,214.44973301887512,None,None,None,479.2695551348023,pseudo_text_04,26,2,1,2,Reading_pseudotext_no_click,None,Mit,,,,,OA05,001,no,1500,2000,94,349,422,2024-08-28_12h06.09.732,EXNAT_3_fMRI_Psychopy2023.1.3,2023.1.3,59.99808317586289,
1,0,1,0,,,,,,,,,,,#D292F3,973.6801970005035,214.9328899383545,None,None,None,544.4253901074371,pseudo_text_04,27,2,1,2,Reading_pseudotext_no_click,None,seisen,,,,,OA05,001,no,1500,2000,94,349,422,2024-08-28_12h06.09.732,EXNAT_3_fMRI_Psychopy2023.1.3,2023.1.3,59.99808317586289,
1,0,1,0,,,,,,,,,,,#88BA3F,974.2305240631104,215.4832170009613,None,None,None,617.1052396013845,pseudo_text_04,28,2,1,2,Reading_pseudotext_no_click,None,einküsartiden,,,,,OA05,001,no,1500,2000,94,349,422,2024-08-28_12h06.09.732,EXNAT_3_fMRI_Psychopy2023.1.3,2023.1.3,59.99808317586289,
1,0,1,0,,,,,,,,,,,#D292F3,974.8637630939484,216.11645603179932,None,None,None,582.5391102696046,pseudo_text_04,29,2,1,2,Reading_pseudotext_no_click,None,"Varerein,",,,,,OA05,001,no,1500,2000,94,349,422,2024-08-28_12h06.09.732,EXNAT_3_fMRI_Psychopy2023.1.3,2023.1.3,59.99808317586289,
1,0,1,0,,,,,,,,,,,#88BA3F,975.4633691310883,216.7160620689392,None,None,None,601.4021556430469,pseudo_text_04,30,2,1,2,Reading_pseudotext_no_click,None,inkapatifen,,,,,OA05,001,no,1500,2000,94,349,422,2024-08-28_12h06.09.732,EXNAT_3_fMRI_Psychopy2023.1.3,2023.1.3,59.99808317586289,
1,0,1,0,,,,,,,,,,,#88BA3F,976.0803210735321,217.33301401138306,None,None,None,582.5391102696046,pseudo_text_04,31,2,1,2,Reading_pseudotext_no_click,None,Grojenken,,,,,OA05,001,no,1500,2000,94,349,422,2024-08-28_12h06.09.732,EXNAT_3_fMRI_Psychopy2023.1.3,2023.1.3,59.99808317586289,
1,0,1,0,,,,,,,,,,,#F989A2,976.679680109024,217.932373046875,None,None,None,479.2695551348023,pseudo_text_04,32,2,1,2,Reading_pseudotext_no_click,None,und,,,,,OA05,001,no,1500,2000,94,349,422,2024-08-28_12h06.09.732,EXNAT_3_fMRI_Psychopy2023.1.3,2023.1.3,59.99808317586289,
1,0,1,0,,,,,,,,,,,#F989A2,977.1631600856781,218.41585302352905,None,None,None,479.2695551348023,pseudo_text_04,33,2,1,2,Reading_pseudotext_no_click,None,der,,,,,OA05,001,no,1500,2000,94,349,422,2024-08-28_12h06.09.732,EXNAT_3_fMRI_Psychopy2023.1.3,2023.1.3,59.99808317586289,
1,0,1,0,,,,,,,,,,,#F989A2,977.6464681625366,218.89916110038757,None,None,None,592.4429987414403,pseudo_text_04,34,2,1,2,Reading_pseudotext_no_click,None,mesengigen,,,,,OA05,001,no,1500,2000,94,349,422,2024-08-28_12h06.09.732,EXNAT_3_fMRI_Psychopy2023.1.3,2023.1.3,59.99808317586289,
1,0,1,0,,,,,,,,,,,#D292F3,978.2470581531525,219.49975109100342,None,None,None,642.3220543412843,pseudo_text_04,35,2,1,2,Reading_pseudotext_no_click,None,Pflawenkarstqueme,,,,,OA05,001,no,1500,2000,94,349,422,2024-08-28_12h06.09.732,EXNAT_3_fMRI_Psychopy2023.1.3,2023.1.3,59.99808317586289,
1,0,1,0,,,,,,,,,,,#2AB7EF,978.8963391780853,220.14903211593628,None,None,None,544.4253901074371,pseudo_text_04,36,2,1,2,Reading_pseudotext_no_click,None,zautet,,,,,OA05,001,no,1500,2000,94,349,422,2024-08-28_12h06.09.732,EXNAT_3_fMRI_Psychopy2023.1.3,2023.1.3,59.99808317586289,
1,0,1,0,,,,,,,,,,,#88BA3F,979.4461109638214,220.69880390167236,None,None,None,479.2695551348023,pseudo_text_04,37,2,1,2,Reading_pseudotext_no_click,None,das,,,,,OA05,001,no,1500,2000,94,349,422,2024-08-28_12h06.09.732,EXNAT_3_fMRI_Psychopy2023.1.3,2023.1.3,59.99808317586289,
1,0,1,0,,,,,,,,,,,#F989A2,979.9299530982971,221.18264603614807,None,None,None,571.4675049179045,pseudo_text_04,38,2,1,2,Reading_pseudotext_no_click,None,Nestiwol,,,,,OA05,001,no,1500,2000,94,349,422,2024-08-28_12h06.09.732,EXNAT_3_fMRI_Psychopy2023.1.3,2023.1.3,59.99808317586289,
1,0,1,0,,,,,,,,,,,#2AB7EF,980.5128130912781,221.76550602912903,None,None,None,527.2871637688054,pseudo_text_04,39,2,1,2,Reading_pseudotext_no_click,None,deges,,,,,OA05,001,no,1500,2000,94,349,422,2024-08-28_12h06.09.732,EXNAT_3_fMRI_Psychopy2023.1.3,2023.1.3,59.99808317586289,
1,0,1,0,,,,,,,,,,,#F989A2,981.0464191436768,222.2991120815277,None,None,None,506.3116699452698,pseudo_text_04,40,2,1,2,Reading_pseudotext_no_click,None,Japf,,,,,OA05,001,no,1500,2000,94,349,422,2024-08-28_12h06.09.732,EXNAT_3_fMRI_Psychopy2023.1.3,2023.1.3,59.99808317586289,
1,0,1,0,,,,,,,,,,,#F989A2,981.5626571178436,222.81535005569458,None,None,None,506.3116699452698,pseudo_text_04,41,2,1,2,Reading_pseudotext_no_click,None,eine,,,,,OA05,001,no,1500,2000,94,349,422,2024-08-28_12h06.09.732,EXNAT_3_fMRI_Psychopy2023.1.3,2023.1.3,59.99808317586289,
1,0,1,0,,,,,,,,,,,#F989A2,982.0796620845795,223.33235502243042,None,None,None,582.5391102696046,pseudo_text_04,42,2,1,2,Reading_pseudotext_no_click,None,einmadale,,,,,OA05,001,no,1500,2000,94,349,422,2024-08-28_12h06.09.732,EXNAT_3_fMRI_Psychopy2023.1.3,2023.1.3,59.99808317586289,
1,0,1,0,,,,,,,,,,,#88BA3F,982.6798601150513,223.93255305290222,None,None,None,609.581225080072,pseudo_text_04,43,2,1,2,Reading_pseudotext_no_click,None,"Beleterweit,",,,,,OA05,001,no,1500,2000,94,349,422,2024-08-28_12h06.09.732,EXNAT_3_fMRI_Psychopy2023.1.3,2023.1.3,59.99808317586289,
1,0,1,0,,,,,,,,,,,#D292F3,983.2958409786224,224.5485339164734,None,None,None,479.2695551348023,pseudo_text_04,44,2,1,2,Reading_pseudotext_no_click,None,die,,,,,OA05,001,no,1500,2000,94,349,422,2024-08-28_12h06.09.732,EXNAT_3_fMRI_Psychopy2023.1.3,2023.1.3,59.99808317586289,
1,0,1,0,,,,,,,,,,,#D292F3,983.7792789936066,225.03197193145752,None,None,None,571.4675049179045,pseudo_text_04,45,2,1,2,Reading_pseudotext_no_click,None,zweatope,,,,,OA05,001,no,1500,2000,94,349,422,2024-08-28_12h06.09.732,EXNAT_3_fMRI_Psychopy2023.1.3,2023.1.3,59.99808317586289,
1,0,1,0,,,,,,,,,,,#2AB7EF,984.3628590106964,225.61555194854736,None,None,None,558.9155540111994,pseudo_text_04,46,2,1,2,Reading_pseudotext_no_click,None,Emerzau,,,,,OA05,001,no,1500,2000,94,349,422,2024-08-28_12h06.09.732,EXNAT_3_fMRI_Psychopy2023.1.3,2023.1.3,59.99808317586289,
1,0,1,0,,,,,,,,,,,#D292F3,984.9290211200714,226.18171405792236,None,None,None,479.2695551348023,pseudo_text_04,47,2,1,2,Reading_pseudotext_no_click,None,und,,,,,OA05,001,no,1500,2000,94,349,422,2024-08-28_12h06.09.732,EXNAT_3_fMRI_Psychopy2023.1.3,2023.1.3,59.99808317586289,
1,0,1,0,,,,,,,,,,,#2AB7EF,985.412425994873,226.665118932724,None,None,None,571.4675049179045,pseudo_text_04,48,2,1,2,Reading_pseudotext_no_click,None,Biedfalt,,,,,OA05,001,no,1500,2000,94,349,422,2024-08-28_12h06.09.732,EXNAT_3_fMRI_Psychopy2023.1.3,2023.1.3,59.99808317586289,
1,0,1,0,,,,,,,,,,,#88BA3F,985.9955489635468,227.2482419013977,None,None,None,479.2695551348023,pseudo_text_04,49,2,1,2,Reading_pseudotext_no_click,None,der,,,,,OA05,001,no,1500,2000,94,349,422,2024-08-28_12h06.09.732,EXNAT_3_fMRI_Psychopy2023.1.3,2023.1.3,59.99808317586289,
1,0,1,0,,,,,,,,,,,#F989A2,986.4789271354675,227.73162007331848,None,None,None,527.2871637688054,pseudo_text_04,50,2,1,2,Reading_pseudotext_no_click,None,Stoyt,,,,,OA05,001,no,1500,2000,94,349,422,2024-08-28_12h06.09.732,EXNAT_3_fMRI_Psychopy2023.1.3,2023.1.3,59.99808317586289,
1,0,1,0,,,,,,,,,,,#88BA3F,987.0123209953308,228.26501393318176,None,None,None,470.0,pseudo_text_04,51,2,1,2,Reading_pseudotext_no_click,None,zu,,,,,OA05,001,no,1500,2000,94,349,422,2024-08-28_12h06.09.732,EXNAT_3_fMRI_Psychopy2023.1.3,2023.1.3,59.99808317586289,
1,0,1,0,,,,,,,,,,,#88BA3F,987.4955861568451,228.74827909469604,None,None,None,571.4675049179045,pseudo_text_04,52,2,1,2,Reading_pseudotext_no_click,None,erbipen.,,,,,OA05,001,no,1500,2000,94,349,422,2024-08-28_12h06.09.732,EXNAT_3_fMRI_Psychopy2023.1.3,2023.1.3,59.99808317586289,
1,0,1,0,,,,,,,,,,,#2AB7EF,988.0792601108551,229.33195304870605,None,None,None,571.4675049179045,pseudo_text_04,53,2,1,2,Reading_pseudotext_no_click,None,Zeluchem,,,,,OA05,001,no,1500,2000,94,349,422,2024-08-28_12h06.09.732,EXNAT_3_fMRI_Psychopy2023.1.3,2023.1.3,59.99808317586289,
1,0,1,0,,,,,,,,,,,#D292F3,988.6621270179749,229.9148199558258,None,None,None,544.4253901074371,pseudo_text_04,54,2,1,2,Reading_pseudotext_no_click,None,letten,,,,,OA05,001,no,1500,2000,94,349,422,2024-08-28_12h06.09.732,EXNAT_3_fMRI_Psychopy2023.1.3,2023.1.3,59.99808317586289,
1,0,1,0,,,,,,,,,,,#2AB7EF,989.2119071483612,230.46460008621216,None,None,None,479.2695551348023,pseudo_text_04,55,2,1,2,Reading_pseudotext_no_click,None,die,,,,,OA05,001,no,1500,2000,94,349,422,2024-08-28_12h06.09.732,EXNAT_3_fMRI_Psychopy2023.1.3,2023.1.3,59.99808317586289,
1,0,1,0,,,,,,,,,,,#D292F3,989.6955170631409,230.94821000099182,None,None,None,582.5391102696046,pseudo_text_04,56,2,1,2,Reading_pseudotext_no_click,None,einmadale,,,,,OA05,001,no,1500,2000,94,349,422,2024-08-28_12h06.09.732,EXNAT_3_fMRI_Psychopy2023.1.3,2023.1.3,59.99808317586289,
1,0,1,0,,,,,,,,,,,#F989A2,990.2957470417023,231.54843997955322,None,None,None,609.581225080072,pseudo_text_04,57,2,1,2,Reading_pseudotext_no_click,None,"Tädlichkeit,",,,,,OA05,001,no,1500,2000,94,349,422,2024-08-28_12h06.09.732,EXNAT_3_fMRI_Psychopy2023.1.3,2023.1.3,59.99808317586289,
1,0,1,0,,,,,,,,,,,#2AB7EF,990.9117641448975,232.1644570827484,None,None,None,470.0,pseudo_text_04,58,2,1,2,Reading_pseudotext_no_click,None,an,,,,,OA05,001,no,1500,2000,94,349,422,2024-08-28_12h06.09.732,EXNAT_3_fMRI_Psychopy2023.1.3,2023.1.3,59.99808317586289,
