loop_run1_single_reading.thisRepN,loop_run1_single_reading.thisTrialN,loop_run1_single_reading.thisN,loop_run1_single_reading.thisIndex,loop_run2_single_nback.thisRepN,loop_run2_single_nback.thisTrialN,loop_run2_single_nback.thisN,loop_run2_single_nback.thisIndex,loop_dual_task_blocks.thisRepN,loop_dual_task_blocks.thisTrialN,loop_dual_task_blocks.thisN,loop_dual_task_blocks.thisIndex,TriggerCount,TriggerTime,colour,global_onset_time,onset_time_rel2trigger,target,nback_response,nback_RT,duration,text_nr,trial_nr,block_nr_exp,run_nr,block_nr_run,block_name,n-back_level,word,question,button_pressed,chosen_ans,ans_correct,participant,session,testing_mode,RT_per_rectangle_oneback_single,RT_per_rectangle_twoback_single,RT_per_letter_baseline,RT_per_letter_oneback_dual,RT_per_letter_twoback_dual,date,expName,psychopyVersion,frameRate,
0,0,0,0,,,,,,,,,1,87.96221399307251,#88BA3F,98.81447196006775,10.85225796699524,None,None,None,565.5609079175886,text_01,1,1,1,1,Reading_Baseline_main_no_click,None,Beim,,,,,OA063,001,no,815,1634,105,191,388,2024-08-29_11h06.40.168,EXNAT_3_fMRI_Psychopy2023.1.3,2023.1.3,59.99525107780508,
0,0,0,0,,,,,,,,,,,#D292F3,99.39783096313477,11.435616970062256,None,None,None,624.3205656508079,text_01,2,1,1,1,Reading_Baseline_main_no_click,None,Anblick,,,,,OA063,001,no,815,1634,105,191,388,2024-08-29_11h06.40.168,EXNAT_3_fMRI_Psychopy2023.1.3,2023.1.3,59.99525107780508,
0,0,0,0,,,,,,,,,,,#2AB7EF,100.03010296821594,12.067888975143433,None,None,None,535.3542903101516,text_01,3,1,1,1,Reading_Baseline_main_no_click,None,der,,,,,OA063,001,no,815,1634,105,191,388,2024-08-29_11h06.40.168,EXNAT_3_fMRI_Psychopy2023.1.3,2023.1.3,59.99525107780508,
0,0,0,0,,,,,,,,,,,#88BA3F,100.57979798316956,12.617583990097046,None,None,None,588.9909808055805,text_01,4,1,1,1,Reading_Baseline_main_no_click,None,Tiere,,,,,OA063,001,no,815,1634,105,191,388,2024-08-29_11h06.40.168,EXNAT_3_fMRI_Psychopy2023.1.3,2023.1.3,59.99525107780508,
0,0,0,0,,,,,,,,,,,#D292F3,101.17962098121643,13.217406988143921,None,None,None,565.5609079175886,text_01,5,1,1,1,Reading_Baseline_main_no_click,None,wird,,,,,OA063,001,no,815,1634,105,191,388,2024-08-29_11h06.40.168,EXNAT_3_fMRI_Psychopy2023.1.3,2023.1.3,59.99525107780508,
0,0,0,0,,,,,,,,,,,#F989A2,101.76322388648987,13.801009893417358,None,None,None,588.9909808055805,text_01,6,1,1,1,Reading_Baseline_main_no_click,None,"klar,",,,,,OA063,001,no,815,1634,105,191,388,2024-08-29_11h06.40.168,EXNAT_3_fMRI_Psychopy2023.1.3,2023.1.3,59.99525107780508,
0,0,0,0,,,,,,,,,,,#88BA3F,102.36313986778259,14.400925874710083,None,None,None,588.9909808055805,text_01,7,1,1,1,Reading_Baseline_main_no_click,None,warum,,,,,OA063,001,no,815,1634,105,191,388,2024-08-29_11h06.40.168,EXNAT_3_fMRI_Psychopy2023.1.3,2023.1.3,59.99525107780508,
0,0,0,0,,,,,,,,,,,#2AB7EF,102.96240878105164,15.000194787979126,None,None,None,535.3542903101516,text_01,8,1,1,1,Reading_Baseline_main_no_click,None,die,,,,,OA063,001,no,815,1634,105,191,388,2024-08-29_11h06.40.168,EXNAT_3_fMRI_Psychopy2023.1.3,2023.1.3,59.99525107780508,
0,0,0,0,,,,,,,,,,,#2AB7EF,103.5131847858429,15.550970792770386,None,None,None,638.3413618763827,text_01,9,1,1,1,Reading_Baseline_main_no_click,None,Seeleute,,,,,OA063,001,no,815,1634,105,191,388,2024-08-29_11h06.40.168,EXNAT_3_fMRI_Psychopy2023.1.3,2023.1.3,59.99525107780508,
0,0,0,0,,,,,,,,,,,#F989A2,104.16323781013489,16.201023817062378,None,None,None,671.7790036438289,text_01,10,1,1,1,Reading_Baseline_main_no_click,None,vergangener,,,,,OA063,001,no,815,1634,105,191,388,2024-08-29_11h06.40.168,EXNAT_3_fMRI_Psychopy2023.1.3,2023.1.3,59.99525107780508,
0,0,0,0,,,,,,,,,,,#F989A2,104.84671187400818,16.88449788093567,None,None,None,680.9151982277401,text_01,11,1,1,1,Reading_Baseline_main_no_click,None,Jahrhunderte,,,,,OA063,001,no,815,1634,105,191,388,2024-08-29_11h06.40.168,EXNAT_3_fMRI_Psychopy2023.1.3,2023.1.3,59.99525107780508,
0,0,0,0,,,,,,,,,,,#D292F3,105.54627394676208,17.584059953689575,None,None,None,588.9909808055805,text_01,12,1,1,1,Reading_Baseline_main_no_click,None,Angst,,,,,OA063,001,no,815,1634,105,191,388,2024-08-29_11h06.40.168,EXNAT_3_fMRI_Psychopy2023.1.3,2023.1.3,59.99525107780508,
0,0,0,0,,,,,,,,,,,#88BA3F,106.14619278907776,18.18397879600525,None,None,None,535.3542903101516,text_01,13,1,1,1,Reading_Baseline_main_no_click,None,vor,,,,,OA063,001,no,815,1634,105,191,388,2024-08-29_11h06.40.168,EXNAT_3_fMRI_Psychopy2023.1.3,2023.1.3,59.99525107780508,
0,0,0,0,,,,,,,,,,,#2AB7EF,106.6959068775177,18.73369288444519,None,None,None,689.3196825334613,text_01,14,1,1,1,Reading_Baseline_main_no_click,None,Seeungeheuern,,,,,OA063,001,no,815,1634,105,191,388,2024-08-29_11h06.40.168,EXNAT_3_fMRI_Psychopy2023.1.3,2023.1.3,59.99525107780508,
0,0,0,0,,,,,,,,,,,#88BA3F,107.39643096923828,19.43421697616577,None,None,None,624.3205656508079,text_01,15,1,1,1,Reading_Baseline_main_no_click,None,hatten.,,,,,OA063,001,no,815,1634,105,191,388,2024-08-29_11h06.40.168,EXNAT_3_fMRI_Psychopy2023.1.3,2023.1.3,59.99525107780508,
0,0,0,0,,,,,,,,,,,#D292F3,108.02956891059875,20.067354917526245,None,None,None,661.7714347643748,text_01,16,1,1,1,Reading_Baseline_main_no_click,None,Meterlange,,,,,OA063,001,no,815,1634,105,191,388,2024-08-29_11h06.40.168,EXNAT_3_fMRI_Psychopy2023.1.3,2023.1.3,59.99525107780508,
0,0,0,0,,,,,,,,,,,#D292F3,108.69611287117004,20.733898878097534,None,None,None,650.7085806203031,text_01,17,1,1,1,Reading_Baseline_main_no_click,None,"Fangarme,",,,,,OA063,001,no,815,1634,105,191,388,2024-08-29_11h06.40.168,EXNAT_3_fMRI_Psychopy2023.1.3,2023.1.3,59.99525107780508,
0,0,0,0,,,,,,,,,,,#2AB7EF,109.36310482025146,21.400890827178955,None,None,None,608.1347442689457,text_01,18,1,1,1,Reading_Baseline_main_no_click,None,spitze,,,,,OA063,001,no,815,1634,105,191,388,2024-08-29_11h06.40.168,EXNAT_3_fMRI_Psychopy2023.1.3,2023.1.3,59.99525107780508,
0,0,0,0,,,,,,,,,,,#88BA3F,109.9791488647461,22.016934871673584,None,None,None,608.1347442689457,text_01,19,1,1,1,Reading_Baseline_main_no_click,None,Mäuler,,,,,OA063,001,no,815,1634,105,191,388,2024-08-29_11h06.40.168,EXNAT_3_fMRI_Psychopy2023.1.3,2023.1.3,59.99525107780508,
0,0,0,0,,,,,,,,,,,#F989A2,110.5953369140625,22.63312292098999,None,None,None,535.3542903101516,text_01,20,1,1,1,Reading_Baseline_main_no_click,None,und,,,,,OA063,001,no,815,1634,105,191,388,2024-08-29_11h06.40.168,EXNAT_3_fMRI_Psychopy2023.1.3,2023.1.3,59.99525107780508,
0,0,0,0,,,,,,,,,,,#88BA3F,111.14557790756226,23.183363914489746,None,None,None,624.3205656508079,text_01,21,1,1,1,Reading_Baseline_main_no_click,None,riesige,,,,,OA063,001,no,815,1634,105,191,388,2024-08-29_11h06.40.168,EXNAT_3_fMRI_Psychopy2023.1.3,2023.1.3,59.99525107780508,
0,0,0,0,,,,,,,,,,,#D292F3,111.77873682975769,23.81652283668518,None,None,None,588.9909808055805,text_01,22,1,1,1,Reading_Baseline_main_no_click,None,Augen,,,,,OA063,001,no,815,1634,105,191,388,2024-08-29_11h06.40.168,EXNAT_3_fMRI_Psychopy2023.1.3,2023.1.3,59.99525107780508,
0,0,0,0,,,,,,,,,,,#88BA3F,112.37897682189941,24.416762828826904,None,None,None,650.7085806203031,text_01,23,1,1,1,Reading_Baseline_main_no_click,None,verleihen,,,,,OA063,001,no,815,1634,105,191,388,2024-08-29_11h06.40.168,EXNAT_3_fMRI_Psychopy2023.1.3,2023.1.3,59.99525107780508,
0,0,0,0,,,,,,,,,,,#F989A2,113.04519200325012,25.082978010177612,None,None,None,535.3542903101516,text_01,24,1,1,1,Reading_Baseline_main_no_click,None,den,,,,,OA063,001,no,815,1634,105,191,388,2024-08-29_11h06.40.168,EXNAT_3_fMRI_Psychopy2023.1.3,2023.1.3,59.99525107780508,
0,0,0,0,,,,,,,,,,,#88BA3F,113.59567284584045,25.633458852767944,None,None,None,608.1347442689457,text_01,25,1,1,1,Reading_Baseline_main_no_click,None,großen,,,,,OA063,001,no,815,1634,105,191,388,2024-08-29_11h06.40.168,EXNAT_3_fMRI_Psychopy2023.1.3,2023.1.3,59.99525107780508,
0,0,0,0,,,,,,,,,,,#2AB7EF,114.21247792243958,26.250263929367065,None,None,None,638.3413618763827,text_01,26,1,1,1,Reading_Baseline_main_no_click,None,Kalmaren,,,,,OA063,001,no,815,1634,105,191,388,2024-08-29_11h06.40.168,EXNAT_3_fMRI_Psychopy2023.1.3,2023.1.3,59.99525107780508,
0,0,0,0,,,,,,,,,,,#2AB7EF,114.86162996292114,26.899415969848633,None,None,None,535.3542903101516,text_01,27,1,1,1,Reading_Baseline_main_no_click,None,ein,,,,,OA063,001,no,815,1634,105,191,388,2024-08-29_11h06.40.168,EXNAT_3_fMRI_Psychopy2023.1.3,2023.1.3,59.99525107780508,
0,0,0,0,,,,,,,,,,,#2AB7EF,115.41224098205566,27.450026988983154,None,None,None,711.121815835177,text_01,28,1,1,1,Reading_Baseline_main_no_click,None,furchterregendes,,,,,OA063,001,no,815,1634,105,191,388,2024-08-29_11h06.40.168,EXNAT_3_fMRI_Psychopy2023.1.3,2023.1.3,59.99525107780508,
0,0,0,0,,,,,,,,,,,#88BA3F,116.12827277183533,28.166058778762817,None,None,None,650.7085806203031,text_01,29,1,1,1,Reading_Baseline_main_no_click,None,Aussehen.,,,,,OA063,001,no,815,1634,105,191,388,2024-08-29_11h06.40.168,EXNAT_3_fMRI_Psychopy2023.1.3,2023.1.3,59.99525107780508,
0,0,0,0,,,,,,,,,,,#F989A2,116.7950828075409,28.832868814468384,None,None,None,535.3542903101516,text_01,30,1,1,1,Reading_Baseline_main_no_click,None,Vor,,,,,OA063,001,no,815,1634,105,191,388,2024-08-29_11h06.40.168,EXNAT_3_fMRI_Psychopy2023.1.3,2023.1.3,59.99525107780508,
0,0,0,0,,,,,,,,,,,#2AB7EF,117.34460783004761,29.382393836975098,None,None,None,535.3542903101516,text_01,31,1,1,1,Reading_Baseline_main_no_click,None,der,,,,,OA063,001,no,815,1634,105,191,388,2024-08-29_11h06.40.168,EXNAT_3_fMRI_Psychopy2023.1.3,2023.1.3,59.99525107780508,
0,0,0,0,,,,,,,,,,,#D292F3,117.89528894424438,29.933074951171875,None,None,None,588.9909808055805,text_01,32,1,1,1,Reading_Baseline_main_no_click,None,Küste,,,,,OA063,001,no,815,1634,105,191,388,2024-08-29_11h06.40.168,EXNAT_3_fMRI_Psychopy2023.1.3,2023.1.3,59.99525107780508,
0,0,0,0,,,,,,,,,,,#88BA3F,118.4950339794159,30.532819986343384,None,None,None,608.1347442689457,text_01,33,1,1,1,Reading_Baseline_main_no_click,None,Chiles,,,,,OA063,001,no,815,1634,105,191,388,2024-08-29_11h06.40.168,EXNAT_3_fMRI_Psychopy2023.1.3,2023.1.3,59.99525107780508,
0,0,0,0,,,,,,,,,,,#D292F3,119.11108589172363,31.148871898651123,None,None,None,565.5609079175886,text_01,34,1,1,1,Reading_Baseline_main_no_click,None,sind,,,,,OA063,001,no,815,1634,105,191,388,2024-08-29_11h06.40.168,EXNAT_3_fMRI_Psychopy2023.1.3,2023.1.3,59.99525107780508,
0,0,0,0,,,,,,,,,,,#F989A2,119.69453477859497,31.73232078552246,None,None,None,535.3542903101516,text_01,35,1,1,1,Reading_Baseline_main_no_click,None,sie,,,,,OA063,001,no,815,1634,105,191,388,2024-08-29_11h06.40.168,EXNAT_3_fMRI_Psychopy2023.1.3,2023.1.3,59.99525107780508,
0,0,0,0,,,,,,,,,,,#D292F3,120.24471879005432,32.28250479698181,None,None,None,624.3205656508079,text_01,36,1,1,1,Reading_Baseline_main_no_click,None,aktuell,,,,,OA063,001,no,815,1634,105,191,388,2024-08-29_11h06.40.168,EXNAT_3_fMRI_Psychopy2023.1.3,2023.1.3,59.99525107780508,
0,0,0,0,,,,,,,,,,,#D292F3,120.87787199020386,32.91565799713135,None,None,None,525.0,text_01,37,1,1,1,Reading_Baseline_main_no_click,None,in,,,,,OA063,001,no,815,1634,105,191,388,2024-08-29_11h06.40.168,EXNAT_3_fMRI_Psychopy2023.1.3,2023.1.3,59.99525107780508,
0,0,0,0,,,,,,,,,,,#2AB7EF,121.41125082969666,33.449036836624146,None,None,None,608.1347442689457,text_01,38,1,1,1,Reading_Baseline_main_no_click,None,Massen,,,,,OA063,001,no,815,1634,105,191,388,2024-08-29_11h06.40.168,EXNAT_3_fMRI_Psychopy2023.1.3,2023.1.3,59.99525107780508,
0,0,0,0,,,,,,,,,,,#D292F3,122.02748084068298,34.065266847610474,None,None,None,525.0,text_01,39,1,1,1,Reading_Baseline_main_no_click,None,zu,,,,,OA063,001,no,815,1634,105,191,388,2024-08-29_11h06.40.168,EXNAT_3_fMRI_Psychopy2023.1.3,2023.1.3,59.99525107780508,
0,0,0,0,,,,,,,,,,,#F989A2,122.56096887588501,34.5987548828125,None,None,None,608.1347442689457,text_01,40,1,1,1,Reading_Baseline_main_no_click,None,sehen.,,,,,OA063,001,no,815,1634,105,191,388,2024-08-29_11h06.40.168,EXNAT_3_fMRI_Psychopy2023.1.3,2023.1.3,59.99525107780508,
0,0,0,0,,,,,,,,,,,#F989A2,123.1782648563385,35.21605086326599,None,None,None,638.3413618763827,text_01,41,1,1,1,Reading_Baseline_main_no_click,None,Hunderte,,,,,OA063,001,no,815,1634,105,191,388,2024-08-29_11h06.40.168,EXNAT_3_fMRI_Psychopy2023.1.3,2023.1.3,59.99525107780508,
0,0,0,0,,,,,,,,,,,#88BA3F,123.82736897468567,35.86515498161316,None,None,None,535.3542903101516,text_01,42,1,1,1,Reading_Baseline_main_no_click,None,von,,,,,OA063,001,no,815,1634,105,191,388,2024-08-29_11h06.40.168,EXNAT_3_fMRI_Psychopy2023.1.3,2023.1.3,59.99525107780508,
0,0,0,0,,,,,,,,,,,#D292F3,124.3775269985199,36.41531300544739,None,None,None,638.3413618763827,text_01,43,1,1,1,Reading_Baseline_main_no_click,None,riesigen,,,,,OA063,001,no,815,1634,105,191,388,2024-08-29_11h06.40.168,EXNAT_3_fMRI_Psychopy2023.1.3,2023.1.3,59.99525107780508,
0,0,0,0,,,,,,,,,,,#88BA3F,125.02760791778564,37.065393924713135,None,None,None,689.3196825334613,text_01,44,1,1,1,Reading_Baseline_main_no_click,None,Tintenfischen,,,,,OA063,001,no,815,1634,105,191,388,2024-08-29_11h06.40.168,EXNAT_3_fMRI_Psychopy2023.1.3,2023.1.3,59.99525107780508,
0,0,0,0,,,,,,,,,,,#2AB7EF,125.72749400138855,37.76528000831604,None,None,None,650.7085806203031,text_01,45,1,1,1,Reading_Baseline_main_no_click,None,schwimmen,,,,,OA063,001,no,815,1634,105,191,388,2024-08-29_11h06.40.168,EXNAT_3_fMRI_Psychopy2023.1.3,2023.1.3,59.99525107780508,
0,0,0,0,,,,,,,,,,,#F989A2,126.3938570022583,38.43164300918579,None,None,None,525.0,text_01,46,1,1,1,Reading_Baseline_main_no_click,None,in,,,,,OA063,001,no,815,1634,105,191,388,2024-08-29_11h06.40.168,EXNAT_3_fMRI_Psychopy2023.1.3,2023.1.3,59.99525107780508,
0,0,0,0,,,,,,,,,,,#88BA3F,126.92713785171509,38.96492385864258,None,None,None,535.3542903101516,text_01,47,1,1,1,Reading_Baseline_main_no_click,None,den,,,,,OA063,001,no,815,1634,105,191,388,2024-08-29_11h06.40.168,EXNAT_3_fMRI_Psychopy2023.1.3,2023.1.3,59.99525107780508,
0,0,0,0,,,,,,,,,,,#D292F3,127.47751379013062,39.515299797058105,None,None,None,624.3205656508079,text_01,48,1,1,1,Reading_Baseline_main_no_click,None,flachen,,,,,OA063,001,no,815,1634,105,191,388,2024-08-29_11h06.40.168,EXNAT_3_fMRI_Psychopy2023.1.3,2023.1.3,59.99525107780508,
0,0,0,0,,,,,,,,,,,#F989A2,128.11091089248657,40.14869689941406,None,None,None,650.7085806203031,text_01,49,1,1,1,Reading_Baseline_main_no_click,None,Gewässern,,,,,OA063,001,no,815,1634,105,191,388,2024-08-29_11h06.40.168,EXNAT_3_fMRI_Psychopy2023.1.3,2023.1.3,59.99525107780508,
0,0,0,0,,,,,,,,,,,#88BA3F,128.77715277671814,40.81493878364563,None,None,None,535.3542903101516,text_01,50,1,1,1,Reading_Baseline_main_no_click,None,und,,,,,OA063,001,no,815,1634,105,191,388,2024-08-29_11h06.40.168,EXNAT_3_fMRI_Psychopy2023.1.3,2023.1.3,59.99525107780508,
0,0,0,0,,,,,,,,,,,#F989A2,129.3270537853241,41.36483979225159,None,None,None,624.3205656508079,text_01,51,1,1,1,Reading_Baseline_main_no_click,None,fressen,,,,,OA063,001,no,815,1634,105,191,388,2024-08-29_11h06.40.168,EXNAT_3_fMRI_Psychopy2023.1.3,2023.1.3,59.99525107780508,
0,0,0,0,,,,,,,,,,,#88BA3F,129.96037077903748,41.998156785964966,None,None,None,565.5609079175886,text_01,52,1,1,1,Reading_Baseline_main_no_click,None,dort,,,,,OA063,001,no,815,1634,105,191,388,2024-08-29_11h06.40.168,EXNAT_3_fMRI_Psychopy2023.1.3,2023.1.3,59.99525107780508,
0,0,0,0,,,,,,,,,,,#88BA3F,130.54341292381287,42.581198930740356,None,None,None,535.3542903101516,text_01,53,1,1,1,Reading_Baseline_main_no_click,None,die,,,,,OA063,001,no,815,1634,105,191,388,2024-08-29_11h06.40.168,EXNAT_3_fMRI_Psychopy2023.1.3,2023.1.3,59.99525107780508,
0,0,0,0,,,,,,,,,,,#D292F3,131.09355187416077,43.13133788108826,None,None,None,624.3205656508079,text_01,54,1,1,1,Reading_Baseline_main_no_click,None,Fische.,,,,,OA063,001,no,815,1634,105,191,388,2024-08-29_11h06.40.168,EXNAT_3_fMRI_Psychopy2023.1.3,2023.1.3,59.99525107780508,
0,0,0,0,,,,,,,,,,,#2AB7EF,131.7273678779602,43.765153884887695,None,None,None,689.3196825334613,text_01,55,1,1,1,Reading_Baseline_main_no_click,None,Normalerweise,,,,,OA063,001,no,815,1634,105,191,388,2024-08-29_11h06.40.168,EXNAT_3_fMRI_Psychopy2023.1.3,2023.1.3,59.99525107780508,
0,0,0,0,,,,,,,,,,,#88BA3F,132.42659878730774,44.46438479423523,None,None,None,565.5609079175886,text_01,56,1,1,1,Reading_Baseline_main_no_click,None,sind,,,,,OA063,001,no,815,1634,105,191,388,2024-08-29_11h06.40.168,EXNAT_3_fMRI_Psychopy2023.1.3,2023.1.3,59.99525107780508,
0,0,0,0,,,,,,,,,,,#D292F3,133.00980877876282,45.04759478569031,None,None,None,535.3542903101516,text_01,57,1,1,1,Reading_Baseline_main_no_click,None,die,,,,,OA063,001,no,815,1634,105,191,388,2024-08-29_11h06.40.168,EXNAT_3_fMRI_Psychopy2023.1.3,2023.1.3,59.99525107780508,
0,0,0,0,,,,,,,,,,,#F989A2,133.56001996994019,45.597805976867676,None,None,None,608.1347442689457,text_01,58,1,1,1,Reading_Baseline_main_no_click,None,großen,,,,,OA063,001,no,815,1634,105,191,388,2024-08-29_11h06.40.168,EXNAT_3_fMRI_Psychopy2023.1.3,2023.1.3,59.99525107780508,
0,0,0,0,,,,,,,,,,,#D292F3,134.1768078804016,46.2145938873291,None,None,None,624.3205656508079,text_01,59,1,1,1,Reading_Baseline_main_no_click,None,Kalmare,,,,,OA063,001,no,815,1634,105,191,388,2024-08-29_11h06.40.168,EXNAT_3_fMRI_Psychopy2023.1.3,2023.1.3,59.99525107780508,
0,0,0,0,,,,,,,,,,,#2AB7EF,134.8098418712616,46.84762787818909,None,None,None,535.3542903101516,text_01,60,1,1,1,Reading_Baseline_main_no_click,None,nur,,,,,OA063,001,no,815,1634,105,191,388,2024-08-29_11h06.40.168,EXNAT_3_fMRI_Psychopy2023.1.3,2023.1.3,59.99525107780508,
0,0,0,0,,,,,,,,,,,#F989A2,135.35979986190796,47.39758586883545,None,None,None,608.1347442689457,text_01,61,1,1,1,Reading_Baseline_main_no_click,None,schwer,,,,,OA063,001,no,815,1634,105,191,388,2024-08-29_11h06.40.168,EXNAT_3_fMRI_Psychopy2023.1.3,2023.1.3,59.99525107780508,
0,0,0,0,,,,,,,,,,,#2AB7EF,135.97622179985046,48.014007806777954,None,None,None,525.0,text_01,62,1,1,1,Reading_Baseline_main_no_click,None,zu,,,,,OA063,001,no,815,1634,105,191,388,2024-08-29_11h06.40.168,EXNAT_3_fMRI_Psychopy2023.1.3,2023.1.3,59.99525107780508,
0,0,0,0,,,,,,,,,,,#88BA3F,136.51004195213318,48.54782795906067,None,None,None,671.7790036438289,text_01,63,1,1,1,Reading_Baseline_main_no_click,None,beobachten.,,,,,OA063,001,no,815,1634,105,191,388,2024-08-29_11h06.40.168,EXNAT_3_fMRI_Psychopy2023.1.3,2023.1.3,59.99525107780508,
0,0,0,0,,,,,,,,,,,#F989A2,137.19285798072815,49.23064398765564,None,None,None,535.3542903101516,text_01,64,1,1,1,Reading_Baseline_main_no_click,None,Sie,,,,,OA063,001,no,815,1634,105,191,388,2024-08-29_11h06.40.168,EXNAT_3_fMRI_Psychopy2023.1.3,2023.1.3,59.99525107780508,
0,0,0,0,,,,,,,,,,,#D292F3,137.7429039478302,49.78068995475769,None,None,None,588.9909808055805,text_01,65,1,1,1,Reading_Baseline_main_no_click,None,leben,,,,,OA063,001,no,815,1634,105,191,388,2024-08-29_11h06.40.168,EXNAT_3_fMRI_Psychopy2023.1.3,2023.1.3,59.99525107780508,
0,0,0,0,,,,,,,,,,,#2AB7EF,138.34294295310974,50.38072896003723,None,None,None,661.7714347643748,text_01,66,1,1,1,Reading_Baseline_main_no_click,None,eigentlich,,,,,OA063,001,no,815,1634,105,191,388,2024-08-29_11h06.40.168,EXNAT_3_fMRI_Psychopy2023.1.3,2023.1.3,59.99525107780508,
0,0,0,0,,,,,,,,,,,#88BA3F,139.00927090644836,51.047056913375854,None,None,None,525.0,text_01,67,1,1,1,Reading_Baseline_main_no_click,None,im,,,,,OA063,001,no,815,1634,105,191,388,2024-08-29_11h06.40.168,EXNAT_3_fMRI_Psychopy2023.1.3,2023.1.3,59.99525107780508,
0,0,0,0,,,,,,,,,,,#D292F3,139.54299187660217,51.58077788352966,None,None,None,624.3205656508079,text_01,68,1,1,1,Reading_Baseline_main_no_click,None,offenen,,,,,OA063,001,no,815,1634,105,191,388,2024-08-29_11h06.40.168,EXNAT_3_fMRI_Psychopy2023.1.3,2023.1.3,59.99525107780508,
0,0,0,0,,,,,,,,,,,#F989A2,140.17600178718567,52.21378779411316,None,None,None,588.9909808055805,text_01,69,1,1,1,Reading_Baseline_main_no_click,None,Meer.,,,,,OA063,001,no,815,1634,105,191,388,2024-08-29_11h06.40.168,EXNAT_3_fMRI_Psychopy2023.1.3,2023.1.3,59.99525107780508,
0,0,0,0,,,,,,,,,,,#88BA3F,140.7758219242096,52.813607931137085,None,None,None,535.3542903101516,text_01,70,1,1,1,Reading_Baseline_main_no_click,None,Nur,,,,,OA063,001,no,815,1634,105,191,388,2024-08-29_11h06.40.168,EXNAT_3_fMRI_Psychopy2023.1.3,2023.1.3,59.99525107780508,
0,0,0,0,,,,,,,,,,,#D292F3,141.32596683502197,53.36375284194946,None,None,None,608.1347442689457,text_01,71,1,1,1,Reading_Baseline_main_no_click,None,nachts,,,,,OA063,001,no,815,1634,105,191,388,2024-08-29_11h06.40.168,EXNAT_3_fMRI_Psychopy2023.1.3,2023.1.3,59.99525107780508,
0,0,0,0,,,,,,,,,,,#2AB7EF,141.94253587722778,53.98032188415527,None,None,None,608.1347442689457,text_01,72,1,1,1,Reading_Baseline_main_no_click,None,kommen,,,,,OA063,001,no,815,1634,105,191,388,2024-08-29_11h06.40.168,EXNAT_3_fMRI_Psychopy2023.1.3,2023.1.3,59.99525107780508,
0,0,0,0,,,,,,,,,,,#F989A2,142.55901098251343,54.59679698944092,None,None,None,535.3542903101516,text_01,73,1,1,1,Reading_Baseline_main_no_click,None,sie,,,,,OA063,001,no,815,1634,105,191,388,2024-08-29_11h06.40.168,EXNAT_3_fMRI_Psychopy2023.1.3,2023.1.3,59.99525107780508,
0,0,0,0,,,,,,,,,,,#2AB7EF,143.10893177986145,55.14671778678894,None,None,None,525.0,text_01,74,1,1,1,Reading_Baseline_main_no_click,None,an,,,,,OA063,001,no,815,1634,105,191,388,2024-08-29_11h06.40.168,EXNAT_3_fMRI_Psychopy2023.1.3,2023.1.3,59.99525107780508,
0,0,0,0,,,,,,,,,,,#88BA3F,143.64226984977722,55.68005585670471,None,None,None,535.3542903101516,text_01,75,1,1,1,Reading_Baseline_main_no_click,None,die,,,,,OA063,001,no,815,1634,105,191,388,2024-08-29_11h06.40.168,EXNAT_3_fMRI_Psychopy2023.1.3,2023.1.3,59.99525107780508,
0,0,0,0,,,,,,,,,,,#88BA3F,144.19283080101013,56.23061680793762,None,None,None,671.7790036438289,text_01,76,1,1,1,Reading_Baseline_main_no_click,None,"Oberfläche,",,,,,OA063,001,no,815,1634,105,191,388,2024-08-29_11h06.40.168,EXNAT_3_fMRI_Psychopy2023.1.3,2023.1.3,59.99525107780508,
0,0,0,0,,,,,,,,,,,#F989A2,144.87566995620728,56.913455963134766,None,None,None,525.0,text_01,77,1,1,1,Reading_Baseline_main_no_click,None,um,,,,,OA063,001,no,815,1634,105,191,388,2024-08-29_11h06.40.168,EXNAT_3_fMRI_Psychopy2023.1.3,2023.1.3,59.99525107780508,
0,0,0,0,,,,,,,,,,,#2AB7EF,145.40891098976135,57.44669699668884,None,None,None,608.1347442689457,text_01,78,1,1,1,Reading_Baseline_main_no_click,None,kleine,,,,,OA063,001,no,815,1634,105,191,388,2024-08-29_11h06.40.168,EXNAT_3_fMRI_Psychopy2023.1.3,2023.1.3,59.99525107780508,
0,0,0,0,,,,,,,,,,,#88BA3F,146.02550983428955,58.06329584121704,None,None,None,608.1347442689457,text_01,79,1,1,1,Reading_Baseline_main_no_click,None,Fische,,,,,OA063,001,no,815,1634,105,191,388,2024-08-29_11h06.40.168,EXNAT_3_fMRI_Psychopy2023.1.3,2023.1.3,59.99525107780508,
0,0,0,0,,,,,,,,,,,#2AB7EF,146.6419358253479,58.67972183227539,None,None,None,525.0,text_01,80,1,1,1,Reading_Baseline_main_no_click,None,zu,,,,,OA063,001,no,815,1634,105,191,388,2024-08-29_11h06.40.168,EXNAT_3_fMRI_Psychopy2023.1.3,2023.1.3,59.99525107780508,
0,0,0,0,,,,,,,,,,,#D292F3,147.1758029460907,59.21358895301819,None,None,None,608.1347442689457,text_01,81,1,1,1,Reading_Baseline_main_no_click,None,jagen.,,,,,OA063,001,no,815,1634,105,191,388,2024-08-29_11h06.40.168,EXNAT_3_fMRI_Psychopy2023.1.3,2023.1.3,59.99525107780508,
0,0,0,0,,,,,,,,,,,#F989A2,147.79189085960388,59.82967686653137,None,None,None,565.5609079175886,text_01,82,1,1,1,Reading_Baseline_main_no_click,None,Seit,,,,,OA063,001,no,815,1634,105,191,388,2024-08-29_11h06.40.168,EXNAT_3_fMRI_Psychopy2023.1.3,2023.1.3,59.99525107780508,
0,0,0,0,,,,,,,,,,,#D292F3,148.37517499923706,60.41296100616455,None,None,None,565.5609079175886,text_01,83,1,1,1,Reading_Baseline_main_no_click,None,zwei,,,,,OA063,001,no,815,1634,105,191,388,2024-08-29_11h06.40.168,EXNAT_3_fMRI_Psychopy2023.1.3,2023.1.3,59.99525107780508,
0,0,0,0,,,,,,,,,,,#F989A2,148.9589729309082,60.99675893783569,None,None,None,608.1347442689457,text_01,84,1,1,1,Reading_Baseline_main_no_click,None,Wochen,,,,,OA063,001,no,815,1634,105,191,388,2024-08-29_11h06.40.168,EXNAT_3_fMRI_Psychopy2023.1.3,2023.1.3,59.99525107780508,
0,0,0,0,,,,,,,,,,,#D292F3,149.5752158164978,61.61300182342529,None,None,None,565.5609079175886,text_01,85,1,1,1,Reading_Baseline_main_no_click,None,aber,,,,,OA063,001,no,815,1634,105,191,388,2024-08-29_11h06.40.168,EXNAT_3_fMRI_Psychopy2023.1.3,2023.1.3,59.99525107780508,
0,0,0,0,,,,,,,,,,,#F989A2,150.15874981880188,62.19653582572937,None,None,None,565.5609079175886,text_01,86,1,1,1,Reading_Baseline_main_no_click,None,sind,,,,,OA063,001,no,815,1634,105,191,388,2024-08-29_11h06.40.168,EXNAT_3_fMRI_Psychopy2023.1.3,2023.1.3,59.99525107780508,
0,0,0,0,,,,,,,,,,,#2AB7EF,150.74181485176086,62.779600858688354,None,None,None,535.3542903101516,text_01,87,1,1,1,Reading_Baseline_main_no_click,None,sie,,,,,OA063,001,no,815,1634,105,191,388,2024-08-29_11h06.40.168,EXNAT_3_fMRI_Psychopy2023.1.3,2023.1.3,59.99525107780508,
0,0,0,0,,,,,,,,,,,#D292F3,151.29178285598755,63.32956886291504,None,None,None,565.5609079175886,text_01,88,1,1,1,Reading_Baseline_main_no_click,None,auch,,,,,OA063,001,no,815,1634,105,191,388,2024-08-29_11h06.40.168,EXNAT_3_fMRI_Psychopy2023.1.3,2023.1.3,59.99525107780508,
0,0,0,0,,,,,,,,,,,#2AB7EF,151.87481379508972,63.91259980201721,None,None,None,535.3542903101516,text_01,89,1,1,1,Reading_Baseline_main_no_click,None,bei,,,,,OA063,001,no,815,1634,105,191,388,2024-08-29_11h06.40.168,EXNAT_3_fMRI_Psychopy2023.1.3,2023.1.3,59.99525107780508,
0,0,0,0,,,,,,,,,,,#88BA3F,152.42515683174133,64.46294283866882,None,None,None,661.7714347643748,text_01,90,1,1,1,Reading_Baseline_main_no_click,None,Tageslicht,,,,,OA063,001,no,815,1634,105,191,388,2024-08-29_11h06.40.168,EXNAT_3_fMRI_Psychopy2023.1.3,2023.1.3,59.99525107780508,
0,0,0,0,,,,,,,,,,,#88BA3F,153.09149599075317,65.12928199768066,None,None,None,535.3542903101516,text_01,91,1,1,1,Reading_Baseline_main_no_click,None,vor,,,,,OA063,001,no,815,1634,105,191,388,2024-08-29_11h06.40.168,EXNAT_3_fMRI_Psychopy2023.1.3,2023.1.3,59.99525107780508,
0,0,0,0,,,,,,,,,,,#D292F3,153.64144086837769,65.67922687530518,None,None,None,535.3542903101516,text_01,92,1,1,1,Reading_Baseline_main_no_click,None,der,,,,,OA063,001,no,815,1634,105,191,388,2024-08-29_11h06.40.168,EXNAT_3_fMRI_Psychopy2023.1.3,2023.1.3,59.99525107780508,
0,0,0,0,,,,,,,,,,,#2AB7EF,154.19152688980103,66.22931289672852,None,None,None,588.9909808055805,text_01,93,1,1,1,Reading_Baseline_main_no_click,None,Küste,,,,,OA063,001,no,815,1634,105,191,388,2024-08-29_11h06.40.168,EXNAT_3_fMRI_Psychopy2023.1.3,2023.1.3,59.99525107780508,
0,0,0,0,,,,,,,,,,,#F989A2,154.7911958694458,66.82898187637329,None,None,None,525.0,text_01,94,1,1,1,Reading_Baseline_main_no_click,None,zu,,,,,OA063,001,no,815,1634,105,191,388,2024-08-29_11h06.40.168,EXNAT_3_fMRI_Psychopy2023.1.3,2023.1.3,59.99525107780508,
0,0,0,0,,,,,,,,,,,#88BA3F,155.3247938156128,67.36257982254028,None,None,None,608.1347442689457,text_01,95,1,1,1,Reading_Baseline_main_no_click,None,sehen.,,,,,OA063,001,no,815,1634,105,191,388,2024-08-29_11h06.40.168,EXNAT_3_fMRI_Psychopy2023.1.3,2023.1.3,59.99525107780508,
0,0,0,0,,,,,,,,,,,#2AB7EF,155.94202089309692,67.97980690002441,None,None,None,638.3413618763827,text_01,96,1,1,1,Reading_Baseline_main_no_click,None,Zunächst,,,,,OA063,001,no,815,1634,105,191,388,2024-08-29_11h06.40.168,EXNAT_3_fMRI_Psychopy2023.1.3,2023.1.3,59.99525107780508,
0,0,0,0,,,,,,,,,,,#F989A2,156.59134578704834,68.62913179397583,None,None,None,608.1347442689457,text_01,97,1,1,1,Reading_Baseline_main_no_click,None,wurden,,,,,OA063,001,no,815,1634,105,191,388,2024-08-29_11h06.40.168,EXNAT_3_fMRI_Psychopy2023.1.3,2023.1.3,59.99525107780508,
0,0,0,0,,,,,,,,,,,#88BA3F,157.2077717781067,69.24555778503418,None,None,None,565.5609079175886,text_01,98,1,1,1,Reading_Baseline_main_no_click,None,mehr,,,,,OA063,001,no,815,1634,105,191,388,2024-08-29_11h06.40.168,EXNAT_3_fMRI_Psychopy2023.1.3,2023.1.3,59.99525107780508,
0,0,0,0,,,,,,,,,,,#F989A2,157.79102182388306,69.82880783081055,None,None,None,535.3542903101516,text_01,99,1,1,1,Reading_Baseline_main_no_click,None,als,,,,,OA063,001,no,815,1634,105,191,388,2024-08-29_11h06.40.168,EXNAT_3_fMRI_Psychopy2023.1.3,2023.1.3,59.99525107780508,
0,0,0,0,,,,,,,,,,,#88BA3F,158.34158492088318,70.37937092781067,None,None,None,535.3542903101516,text_01,100,1,1,1,Reading_Baseline_main_no_click,None,200,,,,,OA063,001,no,815,1634,105,191,388,2024-08-29_11h06.40.168,EXNAT_3_fMRI_Psychopy2023.1.3,2023.1.3,59.99525107780508,
0,0,0,0,,,,,,,,,,,#2AB7EF,158.89109182357788,70.92887783050537,None,None,None,624.3205656508079,text_01,101,1,1,1,Reading_Baseline_main_no_click,None,Kalmare,,,,,OA063,001,no,815,1634,105,191,388,2024-08-29_11h06.40.168,EXNAT_3_fMRI_Psychopy2023.1.3,2023.1.3,59.99525107780508,
0,0,0,0,,,,,,,,,,,#D292F3,159.52427577972412,71.56206178665161,None,None,None,535.3542903101516,text_01,102,1,1,1,Reading_Baseline_main_no_click,None,vor,,,,,OA063,001,no,815,1634,105,191,388,2024-08-29_11h06.40.168,EXNAT_3_fMRI_Psychopy2023.1.3,2023.1.3,59.99525107780508,
0,0,0,0,,,,,,,,,,,#88BA3F,160.07430577278137,72.11209177970886,None,None,None,588.9909808055805,text_01,103,1,1,1,Reading_Baseline_main_no_click,None,einer,,,,,OA063,001,no,815,1634,105,191,388,2024-08-29_11h06.40.168,EXNAT_3_fMRI_Psychopy2023.1.3,2023.1.3,59.99525107780508,
0,0,0,0,,,,,,,,,,,#D292F3,160.674644947052,72.71243095397949,None,None,None,588.9909808055805,text_01,104,1,1,1,Reading_Baseline_main_no_click,None,Insel,,,,,OA063,001,no,815,1634,105,191,388,2024-08-29_11h06.40.168,EXNAT_3_fMRI_Psychopy2023.1.3,2023.1.3,59.99525107780508,
0,0,0,0,,,,,,,,,,,#2AB7EF,161.27435088157654,73.31213688850403,None,None,None,535.3542903101516,text_01,105,1,1,1,Reading_Baseline_main_no_click,None,vor,,,,,OA063,001,no,815,1634,105,191,388,2024-08-29_11h06.40.168,EXNAT_3_fMRI_Psychopy2023.1.3,2023.1.3,59.99525107780508,
0,0,0,0,,,,,,,,,,,#D292F3,161.82415294647217,73.86193895339966,None,None,None,588.9909808055805,text_01,106,1,1,1,Reading_Baseline_main_no_click,None,Chile,,,,,OA063,001,no,815,1634,105,191,388,2024-08-29_11h06.40.168,EXNAT_3_fMRI_Psychopy2023.1.3,2023.1.3,59.99525107780508,
0,0,0,0,,,,,,,,,,,#88BA3F,162.42426800727844,74.46205401420593,None,None,None,661.7714347643748,text_01,107,1,1,1,Reading_Baseline_main_no_click,None,gesichtet.,,,,,OA063,001,no,815,1634,105,191,388,2024-08-29_11h06.40.168,EXNAT_3_fMRI_Psychopy2023.1.3,2023.1.3,59.99525107780508,
0,0,0,0,,,,,,,,,,,#F989A2,163.090717792511,75.12850379943848,None,None,None,608.1347442689457,text_01,108,1,1,1,Reading_Baseline_main_no_click,None,Später,,,,,OA063,001,no,815,1634,105,191,388,2024-08-29_11h06.40.168,EXNAT_3_fMRI_Psychopy2023.1.3,2023.1.3,59.99525107780508,
0,0,0,0,,,,,,,,,,,#D292F3,163.70740699768066,75.74519300460815,None,None,None,608.1347442689457,text_01,109,1,1,1,Reading_Baseline_main_no_click,None,wurden,,,,,OA063,001,no,815,1634,105,191,388,2024-08-29_11h06.40.168,EXNAT_3_fMRI_Psychopy2023.1.3,2023.1.3,59.99525107780508,
0,0,0,0,,,,,,,,,,,#88BA3F,164.3238480091095,76.36163401603699,None,None,None,565.5609079175886,text_01,110,1,1,1,Reading_Baseline_main_no_click,None,dann,,,,,OA063,001,no,815,1634,105,191,388,2024-08-29_11h06.40.168,EXNAT_3_fMRI_Psychopy2023.1.3,2023.1.3,59.99525107780508,
0,0,0,0,,,,,,,,,,,#2AB7EF,164.90730595588684,76.94509196281433,None,None,None,624.3205656508079,text_01,111,1,1,1,Reading_Baseline_main_no_click,None,weitere,,,,,OA063,001,no,815,1634,105,191,388,2024-08-29_11h06.40.168,EXNAT_3_fMRI_Psychopy2023.1.3,2023.1.3,59.99525107780508,
0,0,0,0,,,,,,,,,,,#F989A2,165.54057383537292,77.57835984230042,None,None,None,624.3205656508079,text_01,112,1,1,1,Reading_Baseline_main_no_click,None,Kalmare,,,,,OA063,001,no,815,1634,105,191,388,2024-08-29_11h06.40.168,EXNAT_3_fMRI_Psychopy2023.1.3,2023.1.3,59.99525107780508,
0,0,0,0,,,,,,,,,,,#88BA3F,166.1736397743225,78.21142578125,None,None,None,525.0,text_01,113,1,1,1,Reading_Baseline_main_no_click,None,an,,,,,OA063,001,no,815,1634,105,191,388,2024-08-29_11h06.40.168,EXNAT_3_fMRI_Psychopy2023.1.3,2023.1.3,59.99525107780508,
0,0,0,0,,,,,,,,,,,#D292F3,166.70747089385986,78.74525690078735,None,None,None,624.3205656508079,text_01,114,1,1,1,Reading_Baseline_main_no_click,None,anderen,,,,,OA063,001,no,815,1634,105,191,388,2024-08-29_11h06.40.168,EXNAT_3_fMRI_Psychopy2023.1.3,2023.1.3,59.99525107780508,
0,0,0,0,,,,,,,,,,,#2AB7EF,167.3403079509735,79.378093957901,None,None,None,588.9909808055805,text_01,115,1,1,1,Reading_Baseline_main_no_click,None,Orten,,,,,OA063,001,no,815,1634,105,191,388,2024-08-29_11h06.40.168,EXNAT_3_fMRI_Psychopy2023.1.3,2023.1.3,59.99525107780508,
0,0,0,0,,,,,,,,,,,#F989A2,167.94041991233826,79.97820591926575,None,None,None,624.3205656508079,text_01,116,1,1,1,Reading_Baseline_main_no_click,None,entlang,,,,,OA063,001,no,815,1634,105,191,388,2024-08-29_11h06.40.168,EXNAT_3_fMRI_Psychopy2023.1.3,2023.1.3,59.99525107780508,
0,0,0,0,,,,,,,,,,,#2AB7EF,168.5733299255371,80.6111159324646,None,None,None,535.3542903101516,text_01,117,1,1,1,Reading_Baseline_main_no_click,None,der,,,,,OA063,001,no,815,1634,105,191,388,2024-08-29_11h06.40.168,EXNAT_3_fMRI_Psychopy2023.1.3,2023.1.3,59.99525107780508,
0,0,0,0,,,,,,,,,,,#F989A2,169.12338590621948,81.16117191314697,None,None,None,588.9909808055805,text_01,118,1,1,1,Reading_Baseline_main_no_click,None,Küste,,,,,OA063,001,no,815,1634,105,191,388,2024-08-29_11h06.40.168,EXNAT_3_fMRI_Psychopy2023.1.3,2023.1.3,59.99525107780508,
0,0,0,0,,,,,,,,,,,#D292F3,169.72348880767822,81.76127481460571,None,None,None,608.1347442689457,text_01,119,1,1,1,Reading_Baseline_main_no_click,None,Chiles,,,,,OA063,001,no,815,1634,105,191,388,2024-08-29_11h06.40.168,EXNAT_3_fMRI_Psychopy2023.1.3,2023.1.3,59.99525107780508,
0,0,0,0,,,,,,,,,,,#2AB7EF,170.340313911438,82.37809991836548,None,None,None,671.7790036438289,text_01,120,1,1,1,Reading_Baseline_main_no_click,None,beobachtet.,,,,,OA063,001,no,815,1634,105,191,388,2024-08-29_11h06.40.168,EXNAT_3_fMRI_Psychopy2023.1.3,2023.1.3,59.99525107780508,
0,0,0,0,,,,,,,,,,,#88BA3F,171.02320885658264,83.06099486351013,None,None,None,535.3542903101516,text_01,121,1,1,1,Reading_Baseline_main_no_click,None,Vor,,,,,OA063,001,no,815,1634,105,191,388,2024-08-29_11h06.40.168,EXNAT_3_fMRI_Psychopy2023.1.3,2023.1.3,59.99525107780508,
0,0,0,0,,,,,,,,,,,#F989A2,171.5733139514923,83.6110999584198,None,None,None,588.9909808055805,text_01,122,1,1,1,Reading_Baseline_main_no_click,None,allem,,,,,OA063,001,no,815,1634,105,191,388,2024-08-29_11h06.40.168,EXNAT_3_fMRI_Psychopy2023.1.3,2023.1.3,59.99525107780508,
0,0,0,0,,,,,,,,,,,#2AB7EF,172.17334699630737,84.21113300323486,None,None,None,535.3542903101516,text_01,123,1,1,1,Reading_Baseline_main_no_click,None,für,,,,,OA063,001,no,815,1634,105,191,388,2024-08-29_11h06.40.168,EXNAT_3_fMRI_Psychopy2023.1.3,2023.1.3,59.99525107780508,
0,0,0,0,,,,,,,,,,,#D292F3,172.72293400764465,84.76072001457214,None,None,None,535.3542903101516,text_01,124,1,1,1,Reading_Baseline_main_no_click,None,die,,,,,OA063,001,no,815,1634,105,191,388,2024-08-29_11h06.40.168,EXNAT_3_fMRI_Psychopy2023.1.3,2023.1.3,59.99525107780508,
0,0,0,0,,,,,,,,,,,#2AB7EF,173.27309799194336,85.31088399887085,None,None,None,624.3205656508079,text_01,125,1,1,1,Reading_Baseline_main_no_click,None,Fischer,,,,,OA063,001,no,815,1634,105,191,388,2024-08-29_11h06.40.168,EXNAT_3_fMRI_Psychopy2023.1.3,2023.1.3,59.99525107780508,
0,0,0,0,,,,,,,,,,,#F989A2,173.9061918258667,85.94397783279419,None,None,None,535.3542903101516,text_01,126,1,1,1,Reading_Baseline_main_no_click,None,ist,,,,,OA063,001,no,815,1634,105,191,388,2024-08-29_11h06.40.168,EXNAT_3_fMRI_Psychopy2023.1.3,2023.1.3,59.99525107780508,
0,0,0,0,,,,,,,,,,,#88BA3F,174.45609593391418,86.49388194084167,None,None,None,535.3542903101516,text_01,127,1,1,1,Reading_Baseline_main_no_click,None,das,,,,,OA063,001,no,815,1634,105,191,388,2024-08-29_11h06.40.168,EXNAT_3_fMRI_Psychopy2023.1.3,2023.1.3,59.99525107780508,
0,0,0,0,,,,,,,,,,,#2AB7EF,175.00624799728394,87.04403400421143,None,None,None,661.7714347643748,text_01,128,1,1,1,Reading_Baseline_main_no_click,None,ärgerlich.,,,,,OA063,001,no,815,1634,105,191,388,2024-08-29_11h06.40.168,EXNAT_3_fMRI_Psychopy2023.1.3,2023.1.3,59.99525107780508,
0,0,0,0,,,,,,,,,,,#2AB7EF,175.67298889160156,87.71077489852905,None,None,None,535.3542903101516,text_01,129,1,1,1,Reading_Baseline_main_no_click,None,Die,,,,,OA063,001,no,815,1634,105,191,388,2024-08-29_11h06.40.168,EXNAT_3_fMRI_Psychopy2023.1.3,2023.1.3,59.99525107780508,
0,0,0,0,,,,,,,,,,,#2AB7EF,176.22268891334534,88.26047492027283,None,None,None,624.3205656508079,text_01,130,1,1,1,Reading_Baseline_main_no_click,None,Kalmare,,,,,OA063,001,no,815,1634,105,191,388,2024-08-29_11h06.40.168,EXNAT_3_fMRI_Psychopy2023.1.3,2023.1.3,59.99525107780508,
0,0,0,0,,,,,,,,,,,#D292F3,176.85596895217896,88.89375495910645,None,None,None,624.3205656508079,text_01,131,1,1,1,Reading_Baseline_main_no_click,None,fressen,,,,,OA063,001,no,815,1634,105,191,388,2024-08-29_11h06.40.168,EXNAT_3_fMRI_Psychopy2023.1.3,2023.1.3,59.99525107780508,
0,0,0,0,,,,,,,,,,,#88BA3F,177.48958277702332,89.5273687839508,None,None,None,624.3205656508079,text_01,132,1,1,1,Reading_Baseline_main_no_click,None,"Hechte,",,,,,OA063,001,no,815,1634,105,191,388,2024-08-29_11h06.40.168,EXNAT_3_fMRI_Psychopy2023.1.3,2023.1.3,59.99525107780508,
0,0,0,0,,,,,,,,,,,#D292F3,178.12262988090515,90.16041588783264,None,None,None,638.3413618763827,text_01,133,1,1,1,Reading_Baseline_main_no_click,None,Sardinen,,,,,OA063,001,no,815,1634,105,191,388,2024-08-29_11h06.40.168,EXNAT_3_fMRI_Psychopy2023.1.3,2023.1.3,59.99525107780508,
0,0,0,0,,,,,,,,,,,#2AB7EF,178.7723469734192,90.81013298034668,None,None,None,535.3542903101516,text_01,134,1,1,1,Reading_Baseline_main_no_click,None,und,,,,,OA063,001,no,815,1634,105,191,388,2024-08-29_11h06.40.168,EXNAT_3_fMRI_Psychopy2023.1.3,2023.1.3,59.99525107780508,
0,0,0,0,,,,,,,,,,,#D292F3,179.3225748538971,91.36036086082458,None,None,None,661.7714347643748,text_01,135,1,1,1,Reading_Baseline_main_no_click,None,Sardellen.,,,,,OA063,001,no,815,1634,105,191,388,2024-08-29_11h06.40.168,EXNAT_3_fMRI_Psychopy2023.1.3,2023.1.3,59.99525107780508,
0,0,0,0,,,,,,,,,,,#88BA3F,179.98931097984314,92.02709698677063,None,None,None,535.3542903101516,text_01,136,1,1,1,Reading_Baseline_main_no_click,None,Und,,,,,OA063,001,no,815,1634,105,191,388,2024-08-29_11h06.40.168,EXNAT_3_fMRI_Psychopy2023.1.3,2023.1.3,59.99525107780508,
0,0,0,0,,,,,,,,,,,#F989A2,180.5388798713684,92.5766658782959,None,None,None,535.3542903101516,text_01,137,1,1,1,Reading_Baseline_main_no_click,None,sie,,,,,OA063,001,no,815,1634,105,191,388,2024-08-29_11h06.40.168,EXNAT_3_fMRI_Psychopy2023.1.3,2023.1.3,59.99525107780508,
0,0,0,0,,,,,,,,,,,#D292F3,181.08901691436768,93.12680292129517,None,None,None,588.9909808055805,text_01,138,1,1,1,Reading_Baseline_main_no_click,None,haben,,,,,OA063,001,no,815,1634,105,191,388,2024-08-29_11h06.40.168,EXNAT_3_fMRI_Psychopy2023.1.3,2023.1.3,59.99525107780508,
0,0,0,0,,,,,,,,,,,#F989A2,181.68896389007568,93.72674989700317,None,None,None,608.1347442689457,text_01,139,1,1,1,Reading_Baseline_main_no_click,None,großen,,,,,OA063,001,no,815,1634,105,191,388,2024-08-29_11h06.40.168,EXNAT_3_fMRI_Psychopy2023.1.3,2023.1.3,59.99525107780508,
0,0,0,0,,,,,,,,,,,#2AB7EF,182.3060908317566,94.34387683868408,None,None,None,638.3413618763827,text_01,140,1,1,1,Reading_Baseline_main_no_click,None,Hunger -,,,,,OA063,001,no,815,1634,105,191,388,2024-08-29_11h06.40.168,EXNAT_3_fMRI_Psychopy2023.1.3,2023.1.3,59.99525107780508,
0,0,0,0,,,,,,,,,,,#D292F3,182.95579195022583,94.99357795715332,None,None,None,650.7085806203031,text_01,141,1,1,1,Reading_Baseline_main_no_click,None,schlechte,,,,,OA063,001,no,815,1634,105,191,388,2024-08-29_11h06.40.168,EXNAT_3_fMRI_Psychopy2023.1.3,2023.1.3,59.99525107780508,
0,0,0,0,,,,,,,,,,,#2AB7EF,183.62208485603333,95.65987086296082,None,None,None,608.1347442689457,text_01,142,1,1,1,Reading_Baseline_main_no_click,None,Karten,,,,,OA063,001,no,815,1634,105,191,388,2024-08-29_11h06.40.168,EXNAT_3_fMRI_Psychopy2023.1.3,2023.1.3,59.99525107780508,
0,0,0,0,,,,,,,,,,,#2AB7EF,184.23855185508728,96.27633786201477,None,None,None,535.3542903101516,text_01,143,1,1,1,Reading_Baseline_main_no_click,None,für,,,,,OA063,001,no,815,1634,105,191,388,2024-08-29_11h06.40.168,EXNAT_3_fMRI_Psychopy2023.1.3,2023.1.3,59.99525107780508,
0,0,0,0,,,,,,,,,,,#F989A2,184.78845691680908,96.82624292373657,None,None,None,535.3542903101516,text_01,144,1,1,1,Reading_Baseline_main_no_click,None,die,,,,,OA063,001,no,815,1634,105,191,388,2024-08-29_11h06.40.168,EXNAT_3_fMRI_Psychopy2023.1.3,2023.1.3,59.99525107780508,
0,0,0,0,,,,,,,,,,,#D292F3,185.3386299610138,97.37641596794128,None,None,None,650.7085806203031,text_01,145,1,1,1,Reading_Baseline_main_no_click,None,kleineren,,,,,OA063,001,no,815,1634,105,191,388,2024-08-29_11h06.40.168,EXNAT_3_fMRI_Psychopy2023.1.3,2023.1.3,59.99525107780508,
0,0,0,0,,,,,,,,,,,#D292F3,186.00527596473694,98.04306197166443,None,None,None,624.3205656508079,text_01,146,1,1,1,Reading_Baseline_main_no_click,None,Fische.,,,,,OA063,001,no,815,1634,105,191,388,2024-08-29_11h06.40.168,EXNAT_3_fMRI_Psychopy2023.1.3,2023.1.3,59.99525107780508,
0,0,0,0,,,,,,,,,,,#88BA3F,186.63831496238708,98.67610096931458,None,None,None,535.3542903101516,text_01,147,1,1,1,Reading_Baseline_main_no_click,None,Die,,,,,OA063,001,no,815,1634,105,191,388,2024-08-29_11h06.40.168,EXNAT_3_fMRI_Psychopy2023.1.3,2023.1.3,59.99525107780508,
0,0,0,0,,,,,,,,,,,#2AB7EF,187.18851494789124,99.22630095481873,None,None,None,624.3205656508079,text_01,148,1,1,1,Reading_Baseline_main_no_click,None,Kalmare,,,,,OA063,001,no,815,1634,105,191,388,2024-08-29_11h06.40.168,EXNAT_3_fMRI_Psychopy2023.1.3,2023.1.3,59.99525107780508,
0,0,0,0,,,,,,,,,,,#F989A2,187.82178282737732,99.85956883430481,None,None,None,608.1347442689457,text_01,149,1,1,1,Reading_Baseline_main_no_click,None,selbst,,,,,OA063,001,no,815,1634,105,191,388,2024-08-29_11h06.40.168,EXNAT_3_fMRI_Psychopy2023.1.3,2023.1.3,59.99525107780508,
0,0,0,0,,,,,,,,,,,#88BA3F,188.43852877616882,100.47631478309631,None,None,None,588.9909808055805,text_01,150,1,1,1,Reading_Baseline_main_no_click,None,haben,,,,,OA063,001,no,815,1634,105,191,388,2024-08-29_11h06.40.168,EXNAT_3_fMRI_Psychopy2023.1.3,2023.1.3,59.99525107780508,
0,0,0,0,,,,,,,,,,,#D292F3,189.0383038520813,101.07608985900879,None,None,None,638.3413618763827,text_01,151,1,1,1,Reading_Baseline_main_no_click,None,hingegen,,,,,OA063,001,no,815,1634,105,191,388,2024-08-29_11h06.40.168,EXNAT_3_fMRI_Psychopy2023.1.3,2023.1.3,59.99525107780508,
0,0,0,0,,,,,,,,,,,#2AB7EF,189.6886088848114,101.72639489173889,None,None,None,608.1347442689457,text_01,152,1,1,1,Reading_Baseline_main_no_click,None,Glück:,,,,,OA063,001,no,815,1634,105,191,388,2024-08-29_11h06.40.168,EXNAT_3_fMRI_Psychopy2023.1.3,2023.1.3,59.99525107780508,
0,0,0,0,,,,,,,,,,,#F989A2,190.30467677116394,102.34246277809143,None,None,None,535.3542903101516,text_01,153,1,1,1,Reading_Baseline_main_no_click,None,Sie,,,,,OA063,001,no,815,1634,105,191,388,2024-08-29_11h06.40.168,EXNAT_3_fMRI_Psychopy2023.1.3,2023.1.3,59.99525107780508,
0,0,0,0,,,,,,,,,,,#D292F3,190.85498094558716,102.89276695251465,None,None,None,608.1347442689457,text_01,154,1,1,1,Reading_Baseline_main_no_click,None,gelten,,,,,OA063,001,no,815,1634,105,191,388,2024-08-29_11h06.40.168,EXNAT_3_fMRI_Psychopy2023.1.3,2023.1.3,59.99525107780508,
0,0,0,0,,,,,,,,,,,#2AB7EF,191.4714858531952,103.50927186012268,None,None,None,565.5609079175886,text_01,155,1,1,1,Reading_Baseline_main_no_click,None,zwar,,,,,OA063,001,no,815,1634,105,191,388,2024-08-29_11h06.40.168,EXNAT_3_fMRI_Psychopy2023.1.3,2023.1.3,59.99525107780508,
0,0,0,0,,,,,,,,,,,#F989A2,192.05467295646667,104.09245896339417,None,None,None,525.0,text_01,156,1,1,1,Reading_Baseline_main_no_click,None,in,,,,,OA063,001,no,815,1634,105,191,388,2024-08-29_11h06.40.168,EXNAT_3_fMRI_Psychopy2023.1.3,2023.1.3,59.99525107780508,
0,0,0,0,,,,,,,,,,,#88BA3F,192.58797192573547,104.62575793266296,None,None,None,624.3205656508079,text_01,157,1,1,1,Reading_Baseline_main_no_click,None,manchen,,,,,OA063,001,no,815,1634,105,191,388,2024-08-29_11h06.40.168,EXNAT_3_fMRI_Psychopy2023.1.3,2023.1.3,59.99525107780508,
0,0,0,0,,,,,,,,,,,#F989A2,193.2218508720398,105.25963687896729,None,None,None,624.3205656508079,text_01,158,1,1,1,Reading_Baseline_main_no_click,None,Ländern,,,,,OA063,001,no,815,1634,105,191,388,2024-08-29_11h06.40.168,EXNAT_3_fMRI_Psychopy2023.1.3,2023.1.3,59.99525107780508,
0,0,0,0,,,,,,,,,,,#2AB7EF,193.85454392433167,105.89232993125916,None,None,None,535.3542903101516,text_01,159,1,1,1,Reading_Baseline_main_no_click,None,als,,,,,OA063,001,no,815,1634,105,191,388,2024-08-29_11h06.40.168,EXNAT_3_fMRI_Psychopy2023.1.3,2023.1.3,59.99525107780508,
0,0,0,0,,,,,,,,,,,#F989A2,194.4045147895813,106.44230079650879,None,None,None,680.9151982277401,text_01,160,1,1,1,Reading_Baseline_main_no_click,None,"Delikatesse,",,,,,OA063,001,no,815,1634,105,191,388,2024-08-29_11h06.40.168,EXNAT_3_fMRI_Psychopy2023.1.3,2023.1.3,59.99525107780508,
0,0,0,0,,,,,,,,,,,#D292F3,195.08773684501648,107.12552285194397,None,None,None,608.1347442689457,text_01,161,1,1,1,Reading_Baseline_main_no_click,None,werden,,,,,OA063,001,no,815,1634,105,191,388,2024-08-29_11h06.40.168,EXNAT_3_fMRI_Psychopy2023.1.3,2023.1.3,59.99525107780508,
0,0,0,0,,,,,,,,,,,#2AB7EF,195.7041518688202,107.74193787574768,None,None,None,525.0,text_01,162,1,1,1,Reading_Baseline_main_no_click,None,in,,,,,OA063,001,no,815,1634,105,191,388,2024-08-29_11h06.40.168,EXNAT_3_fMRI_Psychopy2023.1.3,2023.1.3,59.99525107780508,
0,0,0,0,,,,,,,,,,,#D292F3,196.23757100105286,108.27535700798035,None,None,None,588.9909808055805,text_01,163,1,1,1,Reading_Baseline_main_no_click,None,Chile,,,,,OA063,001,no,815,1634,105,191,388,2024-08-29_11h06.40.168,EXNAT_3_fMRI_Psychopy2023.1.3,2023.1.3,59.99525107780508,
0,0,0,0,,,,,,,,,,,#88BA3F,196.8375859260559,108.8753719329834,None,None,None,608.1347442689457,text_01,164,1,1,1,Reading_Baseline_main_no_click,None,jedoch,,,,,OA063,001,no,815,1634,105,191,388,2024-08-29_11h06.40.168,EXNAT_3_fMRI_Psychopy2023.1.3,2023.1.3,59.99525107780508,
0,0,0,0,,,,,,,,,,,#D292F3,197.4541518688202,109.49193787574768,None,None,None,588.9909808055805,text_01,165,1,1,1,Reading_Baseline_main_no_click,None,nicht,,,,,OA063,001,no,815,1634,105,191,388,2024-08-29_11h06.40.168,EXNAT_3_fMRI_Psychopy2023.1.3,2023.1.3,59.99525107780508,
0,0,0,0,,,,,,,,,,,#F989A2,198.05418491363525,110.09197092056274,None,None,None,650.7085806203031,text_01,166,1,1,1,Reading_Baseline_main_no_click,None,gegessen.,,,,,OA063,001,no,815,1634,105,191,388,2024-08-29_11h06.40.168,EXNAT_3_fMRI_Psychopy2023.1.3,2023.1.3,59.99525107780508,
0,0,0,0,,,,,,,,,,,#2AB7EF,198.72089290618896,110.75867891311646,None,None,None,697.1010196096022,text_01,167,1,1,1,Reading_Baseline_main_no_click,None,Meeresbiologen,,,,,OA063,001,no,815,1634,105,191,388,2024-08-29_11h06.40.168,EXNAT_3_fMRI_Psychopy2023.1.3,2023.1.3,59.99525107780508,
0,0,0,0,,,,,,,,,,,#F989A2,199.42088294029236,111.45866894721985,None,None,None,624.3205656508079,text_01,168,1,1,1,Reading_Baseline_main_no_click,None,standen,,,,,OA063,001,no,815,1634,105,191,388,2024-08-29_11h06.40.168,EXNAT_3_fMRI_Psychopy2023.1.3,2023.1.3,59.99525107780508,
0,0,0,0,,,,,,,,,,,#88BA3F,200.05390286445618,112.09168887138367,None,None,None,588.9909808055805,text_01,169,1,1,1,Reading_Baseline_main_no_click,None,wegen,,,,,OA063,001,no,815,1634,105,191,388,2024-08-29_11h06.40.168,EXNAT_3_fMRI_Psychopy2023.1.3,2023.1.3,59.99525107780508,
0,0,0,0,,,,,,,,,,,#D292F3,200.65371990203857,112.69150590896606,None,None,None,535.3542903101516,text_01,170,1,1,1,Reading_Baseline_main_no_click,None,des,,,,,OA063,001,no,815,1634,105,191,388,2024-08-29_11h06.40.168,EXNAT_3_fMRI_Psychopy2023.1.3,2023.1.3,59.99525107780508,
0,0,0,0,,,,,,,,,,,#88BA3F,201.20431995391846,113.24210596084595,None,None,None,671.7790036438289,text_01,171,1,1,1,Reading_Baseline_main_no_click,None,plötzlichen,,,,,OA063,001,no,815,1634,105,191,388,2024-08-29_11h06.40.168,EXNAT_3_fMRI_Psychopy2023.1.3,2023.1.3,59.99525107780508,
0,0,0,0,,,,,,,,,,,#D292F3,201.8879418373108,113.92572784423828,None,None,None,671.7790036438289,text_01,172,1,1,1,Reading_Baseline_main_no_click,None,Erscheinens,,,,,OA063,001,no,815,1634,105,191,388,2024-08-29_11h06.40.168,EXNAT_3_fMRI_Psychopy2023.1.3,2023.1.3,59.99525107780508,
0,0,0,0,,,,,,,,,,,#88BA3F,202.5702998638153,114.6080858707428,None,None,None,535.3542903101516,text_01,173,1,1,1,Reading_Baseline_main_no_click,None,der,,,,,OA063,001,no,815,1634,105,191,388,2024-08-29_11h06.40.168,EXNAT_3_fMRI_Psychopy2023.1.3,2023.1.3,59.99525107780508,
0,0,0,0,,,,,,,,,,,#2AB7EF,203.12037682533264,115.15816283226013,None,None,None,624.3205656508079,text_01,174,1,1,1,Reading_Baseline_main_no_click,None,Kalmare,,,,,OA063,001,no,815,1634,105,191,388,2024-08-29_11h06.40.168,EXNAT_3_fMRI_Psychopy2023.1.3,2023.1.3,59.99525107780508,
0,0,0,0,,,,,,,,,,,#F989A2,203.75367093086243,115.79145693778992,None,None,None,638.3413618763827,text_01,175,1,1,1,Reading_Baseline_main_no_click,None,zunächst,,,,,OA063,001,no,815,1634,105,191,388,2024-08-29_11h06.40.168,EXNAT_3_fMRI_Psychopy2023.1.3,2023.1.3,59.99525107780508,
0,0,0,0,,,,,,,,,,,#F989A2,204.40354800224304,116.44133400917053,None,None,None,535.3542903101516,text_01,176,1,1,1,Reading_Baseline_main_no_click,None,vor,,,,,OA063,001,no,815,1634,105,191,388,2024-08-29_11h06.40.168,EXNAT_3_fMRI_Psychopy2023.1.3,2023.1.3,59.99525107780508,
0,0,0,0,,,,,,,,,,,#88BA3F,204.95344495773315,116.99123096466064,None,None,None,588.9909808055805,text_01,177,1,1,1,Reading_Baseline_main_no_click,None,einem,,,,,OA063,001,no,815,1634,105,191,388,2024-08-29_11h06.40.168,EXNAT_3_fMRI_Psychopy2023.1.3,2023.1.3,59.99525107780508,
0,0,0,0,,,,,,,,,,,#D292F3,205.553484916687,117.5912709236145,None,None,None,608.1347442689457,text_01,178,1,1,1,Reading_Baseline_main_no_click,None,großen,,,,,OA063,001,no,815,1634,105,191,388,2024-08-29_11h06.40.168,EXNAT_3_fMRI_Psychopy2023.1.3,2023.1.3,59.99525107780508,
0,0,0,0,,,,,,,,,,,#2AB7EF,206.1706428527832,118.2084288597107,None,None,None,624.3205656508079,text_01,179,1,1,1,Reading_Baseline_main_no_click,None,Rätsel.,,,,,OA063,001,no,815,1634,105,191,388,2024-08-29_11h06.40.168,EXNAT_3_fMRI_Psychopy2023.1.3,2023.1.3,59.99525107780508,
0,0,0,0,,,,,,,,,,,#88BA3F,206.80327200889587,118.84105801582336,None,None,None,535.3542903101516,text_01,180,1,1,1,Reading_Baseline_main_no_click,None,Nun,,,,,OA063,001,no,815,1634,105,191,388,2024-08-29_11h06.40.168,EXNAT_3_fMRI_Psychopy2023.1.3,2023.1.3,59.99525107780508,
0,0,0,0,,,,,,,,,,,#88BA3F,207.35320782661438,119.39099383354187,None,None,None,535.3542903101516,text_01,181,1,1,1,Reading_Baseline_main_no_click,None,ist,,,,,OA063,001,no,815,1634,105,191,388,2024-08-29_11h06.40.168,EXNAT_3_fMRI_Psychopy2023.1.3,2023.1.3,59.99525107780508,
0,0,0,0,,,,,,,,,,,#F989A2,207.9033238887787,119.94110989570618,None,None,None,608.1347442689457,text_01,182,1,1,1,Reading_Baseline_main_no_click,None,jedoch,,,,,OA063,001,no,815,1634,105,191,388,2024-08-29_11h06.40.168,EXNAT_3_fMRI_Psychopy2023.1.3,2023.1.3,59.99525107780508,
0,0,0,0,,,,,,,,,,,#D292F3,208.51993989944458,120.55772590637207,None,None,None,588.9909808055805,text_01,183,1,1,1,Reading_Baseline_main_no_click,None,"klar,",,,,,OA063,001,no,815,1634,105,191,388,2024-08-29_11h06.40.168,EXNAT_3_fMRI_Psychopy2023.1.3,2023.1.3,59.99525107780508,
0,0,0,0,,,,,,,,,,,#88BA3F,209.1200888156891,121.15787482261658,None,None,None,624.3205656508079,text_01,184,1,1,1,Reading_Baseline_main_no_click,None,weshalb,,,,,OA063,001,no,815,1634,105,191,388,2024-08-29_11h06.40.168,EXNAT_3_fMRI_Psychopy2023.1.3,2023.1.3,59.99525107780508,
0,0,0,0,,,,,,,,,,,#2AB7EF,209.75332283973694,121.79110884666443,None,None,None,535.3542903101516,text_01,185,1,1,1,Reading_Baseline_main_no_click,None,die,,,,,OA063,001,no,815,1634,105,191,388,2024-08-29_11h06.40.168,EXNAT_3_fMRI_Psychopy2023.1.3,2023.1.3,59.99525107780508,
0,0,0,0,,,,,,,,,,,#F989A2,210.30336093902588,122.34114694595337,None,None,None,624.3205656508079,text_01,186,1,1,1,Reading_Baseline_main_no_click,None,Kalmare,,,,,OA063,001,no,815,1634,105,191,388,2024-08-29_11h06.40.168,EXNAT_3_fMRI_Psychopy2023.1.3,2023.1.3,59.99525107780508,
0,0,0,0,,,,,,,,,,,#D292F3,210.9365849494934,122.9743709564209,None,None,None,650.7085806203031,text_01,187,1,1,1,Reading_Baseline_main_no_click,None,plötzlich,,,,,OA063,001,no,815,1634,105,191,388,2024-08-29_11h06.40.168,EXNAT_3_fMRI_Psychopy2023.1.3,2023.1.3,59.99525107780508,
0,0,0,0,,,,,,,,,,,#88BA3F,211.60312795639038,123.64091396331787,None,None,None,680.9151982277401,text_01,188,1,1,1,Reading_Baseline_main_no_click,None,auftauchten.,,,,,OA063,001,no,815,1634,105,191,388,2024-08-29_11h06.40.168,EXNAT_3_fMRI_Psychopy2023.1.3,2023.1.3,59.99525107780508,
0,0,0,0,,,,,,,,,,,#D292F3,212.28611087799072,124.32389688491821,None,None,None,525.0,text_01,189,1,1,1,Reading_Baseline_main_no_click,None,Im,,,,,OA063,001,no,815,1634,105,191,388,2024-08-29_11h06.40.168,EXNAT_3_fMRI_Psychopy2023.1.3,2023.1.3,59.99525107780508,
0,0,0,0,,,,,,,,,,,#F989A2,212.81959295272827,124.85737895965576,None,None,None,624.3205656508079,text_01,190,1,1,1,Reading_Baseline_main_no_click,None,Februar,,,,,OA063,001,no,815,1634,105,191,388,2024-08-29_11h06.40.168,EXNAT_3_fMRI_Psychopy2023.1.3,2023.1.3,59.99525107780508,
0,0,0,0,,,,,,,,,,,#2AB7EF,213.45288395881653,125.49066996574402,None,None,None,638.3413618763827,text_01,191,1,1,1,Reading_Baseline_main_no_click,None,erwärmte,,,,,OA063,001,no,815,1634,105,191,388,2024-08-29_11h06.40.168,EXNAT_3_fMRI_Psychopy2023.1.3,2023.1.3,59.99525107780508,
0,0,0,0,,,,,,,,,,,#D292F3,214.10268378257751,126.140469789505,None,None,None,565.5609079175886,text_01,192,1,1,1,Reading_Baseline_main_no_click,None,sich,,,,,OA063,001,no,815,1634,105,191,388,2024-08-29_11h06.40.168,EXNAT_3_fMRI_Psychopy2023.1.3,2023.1.3,59.99525107780508,
0,0,0,0,,,,,,,,,,,#2AB7EF,214.68599390983582,126.7237799167633,None,None,None,535.3542903101516,text_01,193,1,1,1,Reading_Baseline_main_no_click,None,das,,,,,OA063,001,no,815,1634,105,191,388,2024-08-29_11h06.40.168,EXNAT_3_fMRI_Psychopy2023.1.3,2023.1.3,59.99525107780508,
0,0,0,0,,,,,,,,,,,#D292F3,215.2363579273224,127.27414393424988,None,None,None,565.5609079175886,text_01,194,1,1,1,Reading_Baseline_main_no_click,None,Meer,,,,,OA063,001,no,815,1634,105,191,388,2024-08-29_11h06.40.168,EXNAT_3_fMRI_Psychopy2023.1.3,2023.1.3,59.99525107780508,
0,0,0,0,,,,,,,,,,,#2AB7EF,215.81946182250977,127.85724782943726,None,None,None,661.7714347643748,text_01,195,1,1,1,Reading_Baseline_main_no_click,None,verglichen,,,,,OA063,001,no,815,1634,105,191,388,2024-08-29_11h06.40.168,EXNAT_3_fMRI_Psychopy2023.1.3,2023.1.3,59.99525107780508,
0,0,0,0,,,,,,,,,,,#F989A2,216.4858148097992,128.52360081672668,None,None,None,535.3542903101516,text_01,196,1,1,1,Reading_Baseline_main_no_click,None,mit,,,,,OA063,001,no,815,1634,105,191,388,2024-08-29_11h06.40.168,EXNAT_3_fMRI_Psychopy2023.1.3,2023.1.3,59.99525107780508,
0,0,0,0,,,,,,,,,,,#88BA3F,217.03571581840515,129.07350182533264,None,None,None,535.3542903101516,text_01,197,1,1,1,Reading_Baseline_main_no_click,None,den,,,,,OA063,001,no,815,1634,105,191,388,2024-08-29_11h06.40.168,EXNAT_3_fMRI_Psychopy2023.1.3,2023.1.3,59.99525107780508,
0,0,0,0,,,,,,,,,,,#D292F3,217.58597493171692,129.6237609386444,None,None,None,680.9151982277401,text_01,198,1,1,1,Reading_Baseline_main_no_click,None,Temperaturen,,,,,OA063,001,no,815,1634,105,191,388,2024-08-29_11h06.40.168,EXNAT_3_fMRI_Psychopy2023.1.3,2023.1.3,59.99525107780508,
0,0,0,0,,,,,,,,,,,#F989A2,218.26893091201782,130.3067169189453,None,None,None,525.0,text_01,199,1,1,1,Reading_Baseline_main_no_click,None,in,,,,,OA063,001,no,815,1634,105,191,388,2024-08-29_11h06.40.168,EXNAT_3_fMRI_Psychopy2023.1.3,2023.1.3,59.99525107780508,
0,0,0,0,,,,,,,,,,,#2AB7EF,218.80222988128662,130.8400158882141,None,None,None,535.3542903101516,text_01,200,1,1,1,Reading_Baseline_main_no_click,None,den,,,,,OA063,001,no,815,1634,105,191,388,2024-08-29_11h06.40.168,EXNAT_3_fMRI_Psychopy2023.1.3,2023.1.3,59.99525107780508,
0,0,0,0,,,,,,,,,,,#F989A2,219.35243582725525,131.39022183418274,None,None,None,650.7085806203031,text_01,201,1,1,1,Reading_Baseline_main_no_click,None,Vorjahren,,,,,OA063,001,no,815,1634,105,191,388,2024-08-29_11h06.40.168,EXNAT_3_fMRI_Psychopy2023.1.3,2023.1.3,59.99525107780508,
0,0,0,0,,,,,,,,,,,#88BA3F,220.01908683776855,132.05687284469604,None,None,None,680.9151982277401,text_01,202,1,1,1,Reading_Baseline_main_no_click,None,ungewöhnlich,,,,,OA063,001,no,815,1634,105,191,388,2024-08-29_11h06.40.168,EXNAT_3_fMRI_Psychopy2023.1.3,2023.1.3,59.99525107780508,
0,0,0,0,,,,,,,,,,,#F989A2,220.70246577262878,132.74025177955627,None,None,None,608.1347442689457,text_01,203,1,1,1,Reading_Baseline_main_no_click,None,stark.,,,,,OA063,001,no,815,1634,105,191,388,2024-08-29_11h06.40.168,EXNAT_3_fMRI_Psychopy2023.1.3,2023.1.3,59.99525107780508,
0,0,0,0,,,,,,,,,,,#D292F3,221.31887578964233,133.35666179656982,None,None,None,525.0,text_01,204,1,1,1,Reading_Baseline_main_no_click,None,Es,,,,,OA063,001,no,815,1634,105,191,388,2024-08-29_11h06.40.168,EXNAT_3_fMRI_Psychopy2023.1.3,2023.1.3,59.99525107780508,
0,0,0,0,,,,,,,,,,,#2AB7EF,221.85218477249146,133.88997077941895,None,None,None,650.7085806203031,text_01,205,1,1,1,Reading_Baseline_main_no_click,None,sammelten,,,,,OA063,001,no,815,1634,105,191,388,2024-08-29_11h06.40.168,EXNAT_3_fMRI_Psychopy2023.1.3,2023.1.3,59.99525107780508,
0,0,0,0,,,,,,,,,,,#F989A2,222.51862382888794,134.55640983581543,None,None,None,565.5609079175886,text_01,206,1,1,1,Reading_Baseline_main_no_click,None,sich,,,,,OA063,001,no,815,1634,105,191,388,2024-08-29_11h06.40.168,EXNAT_3_fMRI_Psychopy2023.1.3,2023.1.3,59.99525107780508,
0,0,0,0,,,,,,,,,,,#88BA3F,223.1020369529724,135.1398229598999,None,None,None,588.9909808055805,text_01,207,1,1,1,Reading_Baseline_main_no_click,None,viele,,,,,OA063,001,no,815,1634,105,191,388,2024-08-29_11h06.40.168,EXNAT_3_fMRI_Psychopy2023.1.3,2023.1.3,59.99525107780508,
0,0,0,0,,,,,,,,,,,#F989A2,223.7019829750061,135.7397689819336,None,None,None,608.1347442689457,text_01,208,1,1,1,Reading_Baseline_main_no_click,None,kleine,,,,,OA063,001,no,815,1634,105,191,388,2024-08-29_11h06.40.168,EXNAT_3_fMRI_Psychopy2023.1.3,2023.1.3,59.99525107780508,
0,0,0,0,,,,,,,,,,,#2AB7EF,224.31858777999878,136.35637378692627,None,None,None,608.1347442689457,text_01,209,1,1,1,Reading_Baseline_main_no_click,None,Fische,,,,,OA063,001,no,815,1634,105,191,388,2024-08-29_11h06.40.168,EXNAT_3_fMRI_Psychopy2023.1.3,2023.1.3,59.99525107780508,
0,0,0,0,,,,,,,,,,,#D292F3,224.93505883216858,136.97284483909607,None,None,None,535.3542903101516,text_01,210,1,1,1,Reading_Baseline_main_no_click,None,vor,,,,,OA063,001,no,815,1634,105,191,388,2024-08-29_11h06.40.168,EXNAT_3_fMRI_Psychopy2023.1.3,2023.1.3,59.99525107780508,
0,0,0,0,,,,,,,,,,,#D292F3,225.4849829673767,137.5227689743042,None,None,None,535.3542903101516,text_01,211,1,1,1,Reading_Baseline_main_no_click,None,der,,,,,OA063,001,no,815,1634,105,191,388,2024-08-29_11h06.40.168,EXNAT_3_fMRI_Psychopy2023.1.3,2023.1.3,59.99525107780508,
0,0,0,0,,,,,,,,,,,#88BA3F,226.03538990020752,138.073175907135,None,None,None,608.1347442689457,text_01,212,1,1,1,Reading_Baseline_main_no_click,None,Küste.,,,,,OA063,001,no,815,1634,105,191,388,2024-08-29_11h06.40.168,EXNAT_3_fMRI_Psychopy2023.1.3,2023.1.3,59.99525107780508,
0,0,0,0,,,,,,,,,,,#F989A2,226.65147995948792,138.6892659664154,None,None,None,535.3542903101516,text_01,213,1,1,1,Reading_Baseline_main_no_click,None,Die,,,,,OA063,001,no,815,1634,105,191,388,2024-08-29_11h06.40.168,EXNAT_3_fMRI_Psychopy2023.1.3,2023.1.3,59.99525107780508,
0,0,0,0,,,,,,,,,,,#D292F3,227.20160293579102,139.2393889427185,None,None,None,624.3205656508079,text_01,214,1,1,1,Reading_Baseline_main_no_click,None,Kalmare,,,,,OA063,001,no,815,1634,105,191,388,2024-08-29_11h06.40.168,EXNAT_3_fMRI_Psychopy2023.1.3,2023.1.3,59.99525107780508,
0,0,0,0,,,,,,,,,,,#2AB7EF,227.83483982086182,139.8726258277893,None,None,None,608.1347442689457,text_01,215,1,1,1,Reading_Baseline_main_no_click,None,wurden,,,,,OA063,001,no,815,1634,105,191,388,2024-08-29_11h06.40.168,EXNAT_3_fMRI_Psychopy2023.1.3,2023.1.3,59.99525107780508,
0,0,0,0,,,,,,,,,,,#88BA3F,228.45152497291565,140.48931097984314,None,None,None,624.3205656508079,text_01,216,1,1,1,Reading_Baseline_main_no_click,None,dadurch,,,,,OA063,001,no,815,1634,105,191,388,2024-08-29_11h06.40.168,EXNAT_3_fMRI_Psychopy2023.1.3,2023.1.3,59.99525107780508,
0,0,0,0,,,,,,,,,,,#F989A2,229.08473181724548,141.12251782417297,None,None,None,624.3205656508079,text_01,217,1,1,1,Reading_Baseline_main_no_click,None,magisch,,,,,OA063,001,no,815,1634,105,191,388,2024-08-29_11h06.40.168,EXNAT_3_fMRI_Psychopy2023.1.3,2023.1.3,59.99525107780508,
0,0,0,0,,,,,,,,,,,#2AB7EF,229.71832489967346,141.75611090660095,None,None,None,661.7714347643748,text_01,218,1,1,1,Reading_Baseline_main_no_click,None,angezogen.,,,,,OA063,001,no,815,1634,105,191,388,2024-08-29_11h06.40.168,EXNAT_3_fMRI_Psychopy2023.1.3,2023.1.3,59.99525107780508,
0,0,0,0,,,,,,,,,,,#D292F3,230.38446283340454,142.42224884033203,None,None,None,535.3542903101516,text_01,219,1,1,1,Reading_Baseline_main_no_click,None,Die,,,,,OA063,001,no,815,1634,105,191,388,2024-08-29_11h06.40.168,EXNAT_3_fMRI_Psychopy2023.1.3,2023.1.3,59.99525107780508,
0,0,0,0,,,,,,,,,,,#88BA3F,230.93453693389893,142.97232294082642,None,None,None,624.3205656508079,text_01,220,1,1,1,Reading_Baseline_main_no_click,None,kleinen,,,,,OA063,001,no,815,1634,105,191,388,2024-08-29_11h06.40.168,EXNAT_3_fMRI_Psychopy2023.1.3,2023.1.3,59.99525107780508,
0,0,0,0,,,,,,,,,,,#2AB7EF,231.56812381744385,143.60590982437134,None,None,None,608.1347442689457,text_01,221,1,1,1,Reading_Baseline_main_no_click,None,Fische,,,,,OA063,001,no,815,1634,105,191,388,2024-08-29_11h06.40.168,EXNAT_3_fMRI_Psychopy2023.1.3,2023.1.3,59.99525107780508,
0,0,0,0,,,,,,,,,,,#D292F3,232.18449592590332,144.2222819328308,None,None,None,638.3413618763827,text_01,222,1,1,1,Reading_Baseline_main_no_click,None,bedeuten,,,,,OA063,001,no,815,1634,105,191,388,2024-08-29_11h06.40.168,EXNAT_3_fMRI_Psychopy2023.1.3,2023.1.3,59.99525107780508,
0,0,0,0,,,,,,,,,,,#F989A2,232.834223985672,144.8720099925995,None,None,None,535.3542903101516,text_01,223,1,1,1,Reading_Baseline_main_no_click,None,für,,,,,OA063,001,no,815,1634,105,191,388,2024-08-29_11h06.40.168,EXNAT_3_fMRI_Psychopy2023.1.3,2023.1.3,59.99525107780508,
0,0,0,0,,,,,,,,,,,#88BA3F,233.384192943573,145.4219789505005,None,None,None,535.3542903101516,text_01,224,1,1,1,Reading_Baseline_main_no_click,None,sie,,,,,OA063,001,no,815,1634,105,191,388,2024-08-29_11h06.40.168,EXNAT_3_fMRI_Psychopy2023.1.3,2023.1.3,59.99525107780508,
0,0,0,0,,,,,,,,,,,#D292F3,233.93425798416138,145.97204399108887,None,None,None,608.1347442689457,text_01,225,1,1,1,Reading_Baseline_main_no_click,None,reiche,,,,,OA063,001,no,815,1634,105,191,388,2024-08-29_11h06.40.168,EXNAT_3_fMRI_Psychopy2023.1.3,2023.1.3,59.99525107780508,
0,0,0,0,,,,,,,,,,,#2AB7EF,234.55087399482727,146.58866000175476,None,None,None,608.1347442689457,text_01,226,1,1,1,Reading_Baseline_main_no_click,None,Beute.,,,,,OA063,001,no,815,1634,105,191,388,2024-08-29_11h06.40.168,EXNAT_3_fMRI_Psychopy2023.1.3,2023.1.3,59.99525107780508,
0,0,0,0,,,,,,,,,,,#F989A2,235.16752982139587,147.20531582832336,None,None,None,535.3542903101516,text_01,227,1,1,1,Reading_Baseline_main_no_click,None,Für,,,,,OA063,001,no,815,1634,105,191,388,2024-08-29_11h06.40.168,EXNAT_3_fMRI_Psychopy2023.1.3,2023.1.3,59.99525107780508,
0,0,0,0,,,,,,,,,,,#D292F3,235.71748685836792,147.7552728652954,None,None,None,638.3413618763827,text_01,228,1,1,1,Reading_Baseline_main_no_click,None,Forscher,,,,,OA063,001,no,815,1634,105,191,388,2024-08-29_11h06.40.168,EXNAT_3_fMRI_Psychopy2023.1.3,2023.1.3,59.99525107780508,
0,0,0,0,,,,,,,,,,,#F989A2,236.3672227859497,148.4050087928772,None,None,None,535.3542903101516,text_01,229,1,1,1,Reading_Baseline_main_no_click,None,ist,,,,,OA063,001,no,815,1634,105,191,388,2024-08-29_11h06.40.168,EXNAT_3_fMRI_Psychopy2023.1.3,2023.1.3,59.99525107780508,
0,0,0,0,,,,,,,,,,,#88BA3F,236.91721081733704,148.95499682426453,None,None,None,535.3542903101516,text_01,230,1,1,1,Reading_Baseline_main_no_click,None,das,,,,,OA063,001,no,815,1634,105,191,388,2024-08-29_11h06.40.168,EXNAT_3_fMRI_Psychopy2023.1.3,2023.1.3,59.99525107780508,
0,0,0,0,,,,,,,,,,,#2AB7EF,237.4673547744751,149.5051407814026,None,None,None,535.3542903101516,text_01,231,1,1,1,Reading_Baseline_main_no_click,None,ein,,,,,OA063,001,no,815,1634,105,191,388,2024-08-29_11h06.40.168,EXNAT_3_fMRI_Psychopy2023.1.3,2023.1.3,59.99525107780508,
0,0,0,0,,,,,,,,,,,#2AB7EF,238.01738500595093,150.05517101287842,None,None,None,661.7714347643748,text_01,232,1,1,1,Reading_Baseline_main_no_click,None,besonderer,,,,,OA063,001,no,815,1634,105,191,388,2024-08-29_11h06.40.168,EXNAT_3_fMRI_Psychopy2023.1.3,2023.1.3,59.99525107780508,
0,0,0,0,,,,,,,,,,,#D292F3,238.68405294418335,150.72183895111084,None,None,None,671.7790036438289,text_01,233,1,1,1,Reading_Baseline_main_no_click,None,Glücksfall.,,,,,OA063,001,no,815,1634,105,191,388,2024-08-29_11h06.40.168,EXNAT_3_fMRI_Psychopy2023.1.3,2023.1.3,59.99525107780508,
0,0,0,0,,,,,,,,,,,#88BA3F,239.36728596687317,151.40507197380066,None,None,None,689.3196825334613,text_01,234,1,1,1,Reading_Baseline_main_no_click,None,Normalerweise,,,,,OA063,001,no,815,1634,105,191,388,2024-08-29_11h06.40.168,EXNAT_3_fMRI_Psychopy2023.1.3,2023.1.3,59.99525107780508,
0,0,0,0,,,,,,,,,,,#2AB7EF,240.06695890426636,152.10474491119385,None,None,None,565.5609079175886,text_01,235,1,1,1,Reading_Baseline_main_no_click,None,sind,,,,,OA063,001,no,815,1634,105,191,388,2024-08-29_11h06.40.168,EXNAT_3_fMRI_Psychopy2023.1.3,2023.1.3,59.99525107780508,
0,0,0,0,,,,,,,,,,,#D292F3,240.6502809524536,152.6880669593811,None,None,None,535.3542903101516,text_01,236,1,1,1,Reading_Baseline_main_no_click,None,die,,,,,OA063,001,no,815,1634,105,191,388,2024-08-29_11h06.40.168,EXNAT_3_fMRI_Psychopy2023.1.3,2023.1.3,59.99525107780508,
0,0,0,0,,,,,,,,,,,#D292F3,241.20028400421143,153.23807001113892,None,None,None,608.1347442689457,text_01,237,1,1,1,Reading_Baseline_main_no_click,None,großen,,,,,OA063,001,no,815,1634,105,191,388,2024-08-29_11h06.40.168,EXNAT_3_fMRI_Psychopy2023.1.3,2023.1.3,59.99525107780508,
0,0,0,0,,,,,,,,,,,#88BA3F,241.81692695617676,153.85471296310425,None,None,None,624.3205656508079,text_01,238,1,1,1,Reading_Baseline_main_no_click,None,Kalmare,,,,,OA063,001,no,815,1634,105,191,388,2024-08-29_11h06.40.168,EXNAT_3_fMRI_Psychopy2023.1.3,2023.1.3,59.99525107780508,
0,0,0,0,,,,,,,,,,,#F989A2,242.45005583763123,154.48784184455872,None,None,None,525.0,text_01,239,1,1,1,Reading_Baseline_main_no_click,None,so,,,,,OA063,001,no,815,1634,105,191,388,2024-08-29_11h06.40.168,EXNAT_3_fMRI_Psychopy2023.1.3,2023.1.3,59.99525107780508,
0,0,0,0,,,,,,,,,,,#D292F3,242.9838399887085,155.021625995636,None,None,None,608.1347442689457,text_01,240,1,1,1,Reading_Baseline_main_no_click,None,schwer,,,,,OA063,001,no,815,1634,105,191,388,2024-08-29_11h06.40.168,EXNAT_3_fMRI_Psychopy2023.1.3,2023.1.3,59.99525107780508,
0,0,0,0,,,,,,,,,,,#2AB7EF,243.60004496574402,155.6378309726715,None,None,None,535.3542903101516,text_01,241,1,1,1,Reading_Baseline_main_no_click,None,vor,,,,,OA063,001,no,815,1634,105,191,388,2024-08-29_11h06.40.168,EXNAT_3_fMRI_Psychopy2023.1.3,2023.1.3,59.99525107780508,
0,0,0,0,,,,,,,,,,,#F989A2,244.1499719619751,156.1877579689026,None,None,None,535.3542903101516,text_01,242,1,1,1,Reading_Baseline_main_no_click,None,die,,,,,OA063,001,no,815,1634,105,191,388,2024-08-29_11h06.40.168,EXNAT_3_fMRI_Psychopy2023.1.3,2023.1.3,59.99525107780508,
0,0,0,0,,,,,,,,,,,#D292F3,244.70009589195251,156.73788189888,None,None,None,608.1347442689457,text_01,243,1,1,1,Reading_Baseline_main_no_click,None,Kamera,,,,,OA063,001,no,815,1634,105,191,388,2024-08-29_11h06.40.168,EXNAT_3_fMRI_Psychopy2023.1.3,2023.1.3,59.99525107780508,
0,0,0,0,,,,,,,,,,,#2AB7EF,245.31650686264038,157.35429286956787,None,None,None,525.0,text_01,244,1,1,1,Reading_Baseline_main_no_click,None,zu,,,,,OA063,001,no,815,1634,105,191,388,2024-08-29_11h06.40.168,EXNAT_3_fMRI_Psychopy2023.1.3,2023.1.3,59.99525107780508,
0,0,0,0,,,,,,,,,,,#D292F3,245.85009789466858,157.88788390159607,None,None,None,650.7085806203031,text_01,245,1,1,1,Reading_Baseline_main_no_click,None,"bekommen,",,,,,OA063,001,no,815,1634,105,191,388,2024-08-29_11h06.40.168,EXNAT_3_fMRI_Psychopy2023.1.3,2023.1.3,59.99525107780508,
0,0,0,0,,,,,,,,,,,#88BA3F,246.51645493507385,158.55424094200134,None,None,None,565.5609079175886,text_01,246,1,1,1,Reading_Baseline_main_no_click,None,dass,,,,,OA063,001,no,815,1634,105,191,388,2024-08-29_11h06.40.168,EXNAT_3_fMRI_Psychopy2023.1.3,2023.1.3,59.99525107780508,
0,0,0,0,,,,,,,,,,,#F989A2,247.0999038219452,159.13768982887268,None,None,None,638.3413618763827,text_01,247,1,1,1,Reading_Baseline_main_no_click,None,Forscher,,,,,OA063,001,no,815,1634,105,191,388,2024-08-29_11h06.40.168,EXNAT_3_fMRI_Psychopy2023.1.3,2023.1.3,59.99525107780508,
0,0,0,0,,,,,,,,,,,#88BA3F,247.74988985061646,159.78767585754395,None,None,None,650.7085806203031,text_01,248,1,1,1,Reading_Baseline_main_no_click,None,teilweise,,,,,OA063,001,no,815,1634,105,191,388,2024-08-29_11h06.40.168,EXNAT_3_fMRI_Psychopy2023.1.3,2023.1.3,59.99525107780508,
0,0,0,0,,,,,,,,,,,#F989A2,248.4164559841156,160.4542419910431,None,None,None,535.3542903101516,text_01,249,1,1,1,Reading_Baseline_main_no_click,None,auf,,,,,OA063,001,no,815,1634,105,191,388,2024-08-29_11h06.40.168,EXNAT_3_fMRI_Psychopy2023.1.3,2023.1.3,59.99525107780508,
0,0,0,0,,,,,,,,,,,#88BA3F,248.96666383743286,161.00444984436035,None,None,None,638.3413618763827,text_01,250,1,1,1,Reading_Baseline_main_no_click,None,seltsame,,,,,OA063,001,no,815,1634,105,191,388,2024-08-29_11h06.40.168,EXNAT_3_fMRI_Psychopy2023.1.3,2023.1.3,59.99525107780508,
0,0,0,0,,,,,,,,,,,#D292F3,249.6163239479065,161.65410995483398,None,None,None,588.9909808055805,text_01,251,1,1,1,Reading_Baseline_main_no_click,None,Ideen,,,,,OA063,001,no,815,1634,105,191,388,2024-08-29_11h06.40.168,EXNAT_3_fMRI_Psychopy2023.1.3,2023.1.3,59.99525107780508,
0,0,0,0,,,,,,,,,,,#2AB7EF,250.2163529396057,162.2541389465332,None,None,None,624.3205656508079,text_01,252,1,1,1,Reading_Baseline_main_no_click,None,kommen.,,,,,OA063,001,no,815,1634,105,191,388,2024-08-29_11h06.40.168,EXNAT_3_fMRI_Psychopy2023.1.3,2023.1.3,59.99525107780508,
0,0,0,0,,,,,,,,,,,#F989A2,250.84961700439453,162.88740301132202,None,None,None,535.3542903101516,text_01,253,1,1,1,Reading_Baseline_main_no_click,None,Ein,,,,,OA063,001,no,815,1634,105,191,388,2024-08-29_11h06.40.168,EXNAT_3_fMRI_Psychopy2023.1.3,2023.1.3,59.99525107780508,
0,0,0,0,,,,,,,,,,,#D292F3,251.3995749950409,163.43736100196838,None,None,None,624.3205656508079,text_01,254,1,1,1,Reading_Baseline_main_no_click,None,Biologe,,,,,OA063,001,no,815,1634,105,191,388,2024-08-29_11h06.40.168,EXNAT_3_fMRI_Psychopy2023.1.3,2023.1.3,59.99525107780508,
0,0,0,0,,,,,,,,,,,#D292F3,252.03264999389648,164.07043600082397,None,None,None,535.3542903101516,text_01,255,1,1,1,Reading_Baseline_main_no_click,None,aus,,,,,OA063,001,no,815,1634,105,191,388,2024-08-29_11h06.40.168,EXNAT_3_fMRI_Psychopy2023.1.3,2023.1.3,59.99525107780508,
0,0,0,0,,,,,,,,,,,#88BA3F,252.58287477493286,164.62066078186035,None,None,None,661.7714347643748,text_01,256,1,1,1,Reading_Baseline_main_no_click,None,Neuseeland,,,,,OA063,001,no,815,1634,105,191,388,2024-08-29_11h06.40.168,EXNAT_3_fMRI_Psychopy2023.1.3,2023.1.3,59.99525107780508,
0,0,0,0,,,,,,,,,,,#D292F3,253.24928498268127,165.28707098960876,None,None,None,565.5609079175886,text_01,257,1,1,1,Reading_Baseline_main_no_click,None,etwa,,,,,OA063,001,no,815,1634,105,191,388,2024-08-29_11h06.40.168,EXNAT_3_fMRI_Psychopy2023.1.3,2023.1.3,59.99525107780508,
0,0,0,0,,,,,,,,,,,#88BA3F,253.8327558040619,165.87054181098938,None,None,None,565.5609079175886,text_01,258,1,1,1,Reading_Baseline_main_no_click,None,will,,,,,OA063,001,no,815,1634,105,191,388,2024-08-29_11h06.40.168,EXNAT_3_fMRI_Psychopy2023.1.3,2023.1.3,59.99525107780508,
0,0,0,0,,,,,,,,,,,#2AB7EF,254.41603183746338,166.45381784439087,None,None,None,661.7714347643748,text_01,259,1,1,1,Reading_Baseline_main_no_click,None,"versuchen,",,,,,OA063,001,no,815,1634,105,191,388,2024-08-29_11h06.40.168,EXNAT_3_fMRI_Psychopy2023.1.3,2023.1.3,59.99525107780508,
0,0,0,0,,,,,,,,,,,#88BA3F,255.0823848247528,167.1201708316803,None,None,None,535.3542903101516,text_01,260,1,1,1,Reading_Baseline_main_no_click,None,den,,,,,OA063,001,no,815,1634,105,191,388,2024-08-29_11h06.40.168,EXNAT_3_fMRI_Psychopy2023.1.3,2023.1.3,59.99525107780508,
0,0,0,0,,,,,,,,,,,#F989A2,255.6325647830963,167.6703507900238,None,None,None,661.7714347643748,text_01,261,1,1,1,Reading_Baseline_main_no_click,None,legendären,,,,,OA063,001,no,815,1634,105,191,388,2024-08-29_11h06.40.168,EXNAT_3_fMRI_Psychopy2023.1.3,2023.1.3,59.99525107780508,
0,0,0,0,,,,,,,,,,,#2AB7EF,256.2994158267975,168.33720183372498,None,None,None,680.9151982277401,text_01,262,1,1,1,Reading_Baseline_main_no_click,None,Riesenkalmar,,,,,OA063,001,no,815,1634,105,191,388,2024-08-29_11h06.40.168,EXNAT_3_fMRI_Psychopy2023.1.3,2023.1.3,59.99525107780508,
0,0,0,0,,,,,,,,,,,#2AB7EF,256.9988489151001,169.0366349220276,None,None,None,535.3542903101516,text_01,263,1,1,1,Reading_Baseline_main_no_click,None,mit,,,,,OA063,001,no,815,1634,105,191,388,2024-08-29_11h06.40.168,EXNAT_3_fMRI_Psychopy2023.1.3,2023.1.3,59.99525107780508,
0,0,0,0,,,,,,,,,,,#F989A2,257.5498569011688,169.5876429080963,None,None,None,697.1010196096022,text_01,264,1,1,1,Reading_Baseline_main_no_click,None,Sexualhormonen,,,,,OA063,001,no,815,1634,105,191,388,2024-08-29_11h06.40.168,EXNAT_3_fMRI_Psychopy2023.1.3,2023.1.3,59.99525107780508,
0,0,0,0,,,,,,,,,,,#88BA3F,258.2654938697815,170.30327987670898,None,None,None,535.3542903101516,text_01,265,1,1,1,Reading_Baseline_main_no_click,None,vor,,,,,OA063,001,no,815,1634,105,191,388,2024-08-29_11h06.40.168,EXNAT_3_fMRI_Psychopy2023.1.3,2023.1.3,59.99525107780508,
0,0,0,0,,,,,,,,,,,#2AB7EF,258.81564378738403,170.85342979431152,None,None,None,535.3542903101516,text_01,266,1,1,1,Reading_Baseline_main_no_click,None,die,,,,,OA063,001,no,815,1634,105,191,388,2024-08-29_11h06.40.168,EXNAT_3_fMRI_Psychopy2023.1.3,2023.1.3,59.99525107780508,
0,0,0,0,,,,,,,,,,,#D292F3,259.3655958175659,171.4033818244934,None,None,None,588.9909808055805,text_01,267,1,1,1,Reading_Baseline_main_no_click,None,Linse,,,,,OA063,001,no,815,1634,105,191,388,2024-08-29_11h06.40.168,EXNAT_3_fMRI_Psychopy2023.1.3,2023.1.3,59.99525107780508,
0,0,0,0,,,,,,,,,,,#F989A2,259.96531081199646,172.00309681892395,None,None,None,525.0,text_01,268,1,1,1,Reading_Baseline_main_no_click,None,zu,,,,,OA063,001,no,815,1634,105,191,388,2024-08-29_11h06.40.168,EXNAT_3_fMRI_Psychopy2023.1.3,2023.1.3,59.99525107780508,
0,0,0,0,,,,,,,,,,,#D292F3,260.49881386756897,172.53659987449646,None,None,None,624.3205656508079,text_01,269,1,1,1,Reading_Baseline_main_no_click,None,locken.,,,,,OA063,001,no,815,1634,105,191,388,2024-08-29_11h06.40.168,EXNAT_3_fMRI_Psychopy2023.1.3,2023.1.3,59.99525107780508,
0,0,0,0,,,,,,,,,,,#2AB7EF,261.13183999061584,173.16962599754333,None,None,None,535.3542903101516,text_01,270,1,1,1,Reading_Baseline_main_no_click,None,Der,,,,,OA063,001,no,815,1634,105,191,388,2024-08-29_11h06.40.168,EXNAT_3_fMRI_Psychopy2023.1.3,2023.1.3,59.99525107780508,
0,0,0,0,,,,,,,,,,,#2AB7EF,261.6822979450226,173.72008395195007,None,None,None,680.9151982277401,text_01,271,1,1,1,Reading_Baseline_main_no_click,None,Riesenkalmar,,,,,OA063,001,no,815,1634,105,191,388,2024-08-29_11h06.40.168,EXNAT_3_fMRI_Psychopy2023.1.3,2023.1.3,59.99525107780508,
0,0,0,0,,,,,,,,,,,#D292F3,262.3818738460541,174.41965985298157,None,None,None,535.3542903101516,text_01,272,1,1,1,Reading_Baseline_main_no_click,None,ist,,,,,OA063,001,no,815,1634,105,191,388,2024-08-29_11h06.40.168,EXNAT_3_fMRI_Psychopy2023.1.3,2023.1.3,59.99525107780508,
0,0,0,0,,,,,,,,,,,#88BA3F,262.9317378997803,174.96952390670776,None,None,None,535.3542903101516,text_01,273,1,1,1,Reading_Baseline_main_no_click,None,mit,,,,,OA063,001,no,815,1634,105,191,388,2024-08-29_11h06.40.168,EXNAT_3_fMRI_Psychopy2023.1.3,2023.1.3,59.99525107780508,
0,0,0,0,,,,,,,,,,,#88BA3F,263.4817979335785,175.51958394050598,None,None,None,535.3542903101516,text_01,274,1,1,1,Reading_Baseline_main_no_click,None,bis,,,,,OA063,001,no,815,1634,105,191,388,2024-08-29_11h06.40.168,EXNAT_3_fMRI_Psychopy2023.1.3,2023.1.3,59.99525107780508,
0,0,0,0,,,,,,,,,,,#2AB7EF,264.0318558216095,176.069641828537,None,None,None,525.0,text_01,275,1,1,1,Reading_Baseline_main_no_click,None,zu,,,,,OA063,001,no,815,1634,105,191,388,2024-08-29_11h06.40.168,EXNAT_3_fMRI_Psychopy2023.1.3,2023.1.3,59.99525107780508,
0,0,0,0,,,,,,,,,,,#F989A2,264.5649108886719,176.60269689559937,None,None,None,525.0,text_01,276,1,1,1,Reading_Baseline_main_no_click,None,20,,,,,OA063,001,no,815,1634,105,191,388,2024-08-29_11h06.40.168,EXNAT_3_fMRI_Psychopy2023.1.3,2023.1.3,59.99525107780508,
0,0,0,0,,,,,,,,,,,#D292F3,265.098406791687,177.1361927986145,None,None,None,608.1347442689457,text_01,277,1,1,1,Reading_Baseline_main_no_click,None,Metern,,,,,OA063,001,no,815,1634,105,191,388,2024-08-29_11h06.40.168,EXNAT_3_fMRI_Psychopy2023.1.3,2023.1.3,59.99525107780508,
0,0,0,0,,,,,,,,,,,#2AB7EF,265.7149589061737,177.7527449131012,None,None,None,588.9909808055805,text_01,278,1,1,1,Reading_Baseline_main_no_click,None,Länge,,,,,OA063,001,no,815,1634,105,191,388,2024-08-29_11h06.40.168,EXNAT_3_fMRI_Psychopy2023.1.3,2023.1.3,59.99525107780508,
0,0,0,0,,,,,,,,,,,#88BA3F,266.31476283073425,178.35254883766174,None,None,None,535.3542903101516,text_01,279,1,1,1,Reading_Baseline_main_no_click,None,und,,,,,OA063,001,no,815,1634,105,191,388,2024-08-29_11h06.40.168,EXNAT_3_fMRI_Psychopy2023.1.3,2023.1.3,59.99525107780508,
0,0,0,0,,,,,,,,,,,#F989A2,266.86490392684937,178.90268993377686,None,None,None,588.9909808055805,text_01,280,1,1,1,Reading_Baseline_main_no_click,None,einer,,,,,OA063,001,no,815,1634,105,191,388,2024-08-29_11h06.40.168,EXNAT_3_fMRI_Psychopy2023.1.3,2023.1.3,59.99525107780508,
0,0,0,0,,,,,,,,,,,#2AB7EF,267.464870929718,179.5026569366455,None,None,None,608.1347442689457,text_01,281,1,1,1,Reading_Baseline_main_no_click,None,halben,,,,,OA063,001,no,815,1634,105,191,388,2024-08-29_11h06.40.168,EXNAT_3_fMRI_Psychopy2023.1.3,2023.1.3,59.99525107780508,
0,0,0,0,,,,,,,,,,,#F989A2,268.08124589920044,180.11903190612793,None,None,None,588.9909808055805,text_01,282,1,1,1,Reading_Baseline_main_no_click,None,Tonne,,,,,OA063,001,no,815,1634,105,191,388,2024-08-29_11h06.40.168,EXNAT_3_fMRI_Psychopy2023.1.3,2023.1.3,59.99525107780508,
0,0,0,0,,,,,,,,,,,#2AB7EF,268.681272983551,180.71905899047852,None,None,None,624.3205656508079,text_01,283,1,1,1,Reading_Baseline_main_no_click,None,Gewicht,,,,,OA063,001,no,815,1634,105,191,388,2024-08-29_11h06.40.168,EXNAT_3_fMRI_Psychopy2023.1.3,2023.1.3,59.99525107780508,
0,0,0,0,,,,,,,,,,,#D292F3,269.3144919872284,181.35227799415588,None,None,None,535.3542903101516,text_01,284,1,1,1,Reading_Baseline_main_no_click,None,das,,,,,OA063,001,no,815,1634,105,191,388,2024-08-29_11h06.40.168,EXNAT_3_fMRI_Psychopy2023.1.3,2023.1.3,59.99525107780508,
0,0,0,0,,,,,,,,,,,#F989A2,269.8644208908081,181.9022068977356,None,None,None,608.1347442689457,text_01,285,1,1,1,Reading_Baseline_main_no_click,None,größte,,,,,OA063,001,no,815,1634,105,191,388,2024-08-29_11h06.40.168,EXNAT_3_fMRI_Psychopy2023.1.3,2023.1.3,59.99525107780508,
0,0,0,0,,,,,,,,,,,#88BA3F,270.4811689853668,182.5189549922943,None,None,None,661.7714347643748,text_01,286,1,1,1,Reading_Baseline_main_no_click,None,wirbellose,,,,,OA063,001,no,815,1634,105,191,388,2024-08-29_11h06.40.168,EXNAT_3_fMRI_Psychopy2023.1.3,2023.1.3,59.99525107780508,
0,0,0,0,,,,,,,,,,,#D292F3,271.1475098133087,183.1852958202362,None,None,None,565.5609079175886,text_01,287,1,1,1,Reading_Baseline_main_no_click,None,Tier,,,,,OA063,001,no,815,1634,105,191,388,2024-08-29_11h06.40.168,EXNAT_3_fMRI_Psychopy2023.1.3,2023.1.3,59.99525107780508,
0,0,0,0,,,,,,,,,,,#F989A2,271.73083782196045,183.76862382888794,None,None,None,535.3542903101516,text_01,288,1,1,1,Reading_Baseline_main_no_click,None,der,,,,,OA063,001,no,815,1634,105,191,388,2024-08-29_11h06.40.168,EXNAT_3_fMRI_Psychopy2023.1.3,2023.1.3,59.99525107780508,
0,0,0,0,,,,,,,,,,,#D292F3,272.28087091445923,184.31865692138672,None,None,None,588.9909808055805,text_01,289,1,1,1,Reading_Baseline_main_no_click,None,Welt.,,,,,OA063,001,no,815,1634,105,191,388,2024-08-29_11h06.40.168,EXNAT_3_fMRI_Psychopy2023.1.3,2023.1.3,59.99525107780508,
0,0,0,0,,,,,,,,,,,#88BA3F,272.8808569908142,184.9186429977417,None,None,None,608.1347442689457,text_01,290,1,1,1,Reading_Baseline_main_no_click,None,Bisher,,,,,OA063,001,no,815,1634,105,191,388,2024-08-29_11h06.40.168,EXNAT_3_fMRI_Psychopy2023.1.3,2023.1.3,59.99525107780508,
0,0,0,0,,,,,,,,,,,#D292F3,273.49745297431946,185.53523898124695,None,None,None,588.9909808055805,text_01,291,1,1,1,Reading_Baseline_main_no_click,None,wurde,,,,,OA063,001,no,815,1634,105,191,388,2024-08-29_11h06.40.168,EXNAT_3_fMRI_Psychopy2023.1.3,2023.1.3,59.99525107780508,
0,0,0,0,,,,,,,,,,,#2AB7EF,274.09727787971497,186.13506388664246,None,None,None,525.0,text_01,292,1,1,1,Reading_Baseline_main_no_click,None,er,,,,,OA063,001,no,815,1634,105,191,388,2024-08-29_11h06.40.168,EXNAT_3_fMRI_Psychopy2023.1.3,2023.1.3,59.99525107780508,
0,0,0,0,,,,,,,,,,,#2AB7EF,274.6308238506317,186.6686098575592,None,None,None,565.5609079175886,text_01,293,1,1,1,Reading_Baseline_main_no_click,None,aber,,,,,OA063,001,no,815,1634,105,191,388,2024-08-29_11h06.40.168,EXNAT_3_fMRI_Psychopy2023.1.3,2023.1.3,59.99525107780508,
0,0,0,0,,,,,,,,,,,#88BA3F,275.21421480178833,187.25200080871582,None,None,None,565.5609079175886,text_01,294,1,1,1,Reading_Baseline_main_no_click,None,noch,,,,,OA063,001,no,815,1634,105,191,388,2024-08-29_11h06.40.168,EXNAT_3_fMRI_Psychopy2023.1.3,2023.1.3,59.99525107780508,
0,0,0,0,,,,,,,,,,,#F989A2,275.79719400405884,187.83498001098633,None,None,None,535.3542903101516,text_01,295,1,1,1,Reading_Baseline_main_no_click,None,nie,,,,,OA063,001,no,815,1634,105,191,388,2024-08-29_11h06.40.168,EXNAT_3_fMRI_Psychopy2023.1.3,2023.1.3,59.99525107780508,
0,0,0,0,,,,,,,,,,,#D292F3,276.34745478630066,188.38524079322815,None,None,None,650.7085806203031,text_01,296,1,1,1,Reading_Baseline_main_no_click,None,innerhalb,,,,,OA063,001,no,815,1634,105,191,388,2024-08-29_11h06.40.168,EXNAT_3_fMRI_Psychopy2023.1.3,2023.1.3,59.99525107780508,
0,0,0,0,,,,,,,,,,,#F989A2,277.01403284072876,189.05181884765625,None,None,None,608.1347442689457,text_01,297,1,1,1,Reading_Baseline_main_no_click,None,seines,,,,,OA063,001,no,815,1634,105,191,388,2024-08-29_11h06.40.168,EXNAT_3_fMRI_Psychopy2023.1.3,2023.1.3,59.99525107780508,
0,0,0,0,,,,,,,,,,,#2AB7EF,277.6307339668274,189.66851997375488,None,None,None,671.7790036438289,text_01,298,1,1,1,Reading_Baseline_main_no_click,None,natürlichen,,,,,OA063,001,no,815,1634,105,191,388,2024-08-29_11h06.40.168,EXNAT_3_fMRI_Psychopy2023.1.3,2023.1.3,59.99525107780508,
0,0,0,0,,,,,,,,,,,#F989A2,278.31395292282104,190.35173892974854,None,None,None,671.7790036438289,text_01,299,1,1,1,Reading_Baseline_main_no_click,None,Lebensraums,,,,,OA063,001,no,815,1634,105,191,388,2024-08-29_11h06.40.168,EXNAT_3_fMRI_Psychopy2023.1.3,2023.1.3,59.99525107780508,
0,0,0,0,,,,,,,,,,,#F989A2,278.99726390838623,191.03504991531372,None,None,None,638.3413618763827,text_01,300,1,1,1,Reading_Baseline_main_no_click,None,gefilmt.,,,,,OA063,001,no,815,1634,105,191,388,2024-08-29_11h06.40.168,EXNAT_3_fMRI_Psychopy2023.1.3,2023.1.3,59.99525107780508,
0,0,0,0,,,,,,,,,,,,279.6996548175812,191.73744082450867,,,,,text_01,,1,1,1,Reading_Baseline_main_no_click,None,,Q1,3,c,True,OA063,001,no,815,1634,105,191,388,2024-08-29_11h06.40.168,EXNAT_3_fMRI_Psychopy2023.1.3,2023.1.3,59.99525107780508,
0,0,0,0,,,,,,,,,,,,289.374648809433,201.41243481636047,,,,,text_01,,1,1,1,Reading_Baseline_main_no_click,None,,Q2,4,d,True,OA063,001,no,815,1634,105,191,388,2024-08-29_11h06.40.168,EXNAT_3_fMRI_Psychopy2023.1.3,2023.1.3,59.99525107780508,
0,0,0,0,,,,,,,,,,,,297.99773693084717,210.03552293777466,,,,,text_01,,1,1,1,Reading_Baseline_main_no_click,None,,Q3,1,a,True,OA063,001,no,815,1634,105,191,388,2024-08-29_11h06.40.168,EXNAT_3_fMRI_Psychopy2023.1.3,2023.1.3,59.99525107780508,
0,0,0,0,,,,,,,,,,,,,,,,,,,,,,,,,,,,,,OA063,001,no,815,1634,105,191,388,2024-08-29_11h06.40.168,EXNAT_3_fMRI_Psychopy2023.1.3,2023.1.3,59.99525107780508,
1,0,1,0,,,,,,,,,,,#F989A2,313.09867000579834,225.13645601272583,None,None,None,535.3542903101516,pseudo_text_01,1,2,1,2,Reading_pseudotext_no_click,None,Die,,,,,OA063,001,no,815,1634,105,191,388,2024-08-29_11h06.40.168,EXNAT_3_fMRI_Psychopy2023.1.3,2023.1.3,59.99525107780508,
1,0,1,0,,,,,,,,,,,#88BA3F,313.64557695388794,225.68336296081543,None,None,None,638.3413618763827,pseudo_text_01,2,2,1,2,Reading_pseudotext_no_click,None,agzuebte,,,,,OA063,001,no,815,1634,105,191,388,2024-08-29_11h06.40.168,EXNAT_3_fMRI_Psychopy2023.1.3,2023.1.3,59.99525107780508,
1,0,1,0,,,,,,,,,,,#D292F3,314.2953197956085,226.333105802536,None,None,None,661.7714347643748,pseudo_text_01,3,2,1,2,Reading_pseudotext_no_click,None,Gutdehmung,,,,,OA063,001,no,815,1634,105,191,388,2024-08-29_11h06.40.168,EXNAT_3_fMRI_Psychopy2023.1.3,2023.1.3,59.99525107780508,
1,0,1,0,,,,,,,,,,,#F989A2,314.9609179496765,226.998703956604,None,None,None,588.9909808055805,pseudo_text_01,4,2,1,2,Reading_pseudotext_no_click,None,eines,,,,,OA063,001,no,815,1634,105,191,388,2024-08-29_11h06.40.168,EXNAT_3_fMRI_Psychopy2023.1.3,2023.1.3,59.99525107780508,
1,0,1,0,,,,,,,,,,,#D292F3,315.5614228248596,227.5992088317871,None,None,None,608.1347442689457,pseudo_text_01,5,2,1,2,Reading_pseudotext_no_click,None,gosher,,,,,OA063,001,no,815,1634,105,191,388,2024-08-29_11h06.40.168,EXNAT_3_fMRI_Psychopy2023.1.3,2023.1.3,59.99525107780508,
1,0,1,0,,,,,,,,,,,#F989A2,316.17762088775635,228.21540689468384,None,None,None,671.7790036438289,pseudo_text_01,6,2,1,2,Reading_pseudotext_no_click,None,unbeninnten,,,,,OA063,001,no,815,1634,105,191,388,2024-08-29_11h06.40.168,EXNAT_3_fMRI_Psychopy2023.1.3,2023.1.3,59.99525107780508,
1,0,1,0,,,,,,,,,,,#2AB7EF,316.86121797561646,228.89900398254395,None,None,None,680.9151982277401,pseudo_text_01,7,2,1,2,Reading_pseudotext_no_click,None,Polakauriers,,,,,OA063,001,no,815,1634,105,191,388,2024-08-29_11h06.40.168,EXNAT_3_fMRI_Psychopy2023.1.3,2023.1.3,59.99525107780508,
1,0,1,0,,,,,,,,,,,#88BA3F,317.560751914978,229.59853792190552,None,None,None,671.7790036438289,pseudo_text_01,8,2,1,2,Reading_pseudotext_no_click,None,bebiesterte,,,,,OA063,001,no,815,1634,105,191,388,2024-08-29_11h06.40.168,EXNAT_3_fMRI_Psychopy2023.1.3,2023.1.3,59.99525107780508,
1,0,1,0,,,,,,,,,,,#D292F3,318.244491815567,230.2822778224945,None,None,None,704.345271115732,pseudo_text_01,9,2,1,2,Reading_pseudotext_no_click,None,Missenstrendler,,,,,OA063,001,no,815,1634,105,191,388,2024-08-29_11h06.40.168,EXNAT_3_fMRI_Psychopy2023.1.3,2023.1.3,59.99525107780508,
1,0,1,0,,,,,,,,,,,#2AB7EF,318.96090292930603,230.99868893623352,None,None,None,535.3542903101516,pseudo_text_01,10,2,1,2,Reading_pseudotext_no_click,None,auf,,,,,OA063,001,no,815,1634,105,191,388,2024-08-29_11h06.40.168,EXNAT_3_fMRI_Psychopy2023.1.3,2023.1.3,59.99525107780508,
1,0,1,0,,,,,,,,,,,#2AB7EF,319.51024293899536,231.54802894592285,None,None,None,535.3542903101516,pseudo_text_01,11,2,1,2,Reading_pseudotext_no_click,None,der,,,,,OA063,001,no,815,1634,105,191,388,2024-08-29_11h06.40.168,EXNAT_3_fMRI_Psychopy2023.1.3,2023.1.3,59.99525107780508,
1,0,1,0,,,,,,,,,,,#88BA3F,320.06071496009827,232.09850096702576,None,None,None,608.1347442689457,pseudo_text_01,12,2,1,2,Reading_pseudotext_no_click,None,vannen,,,,,OA063,001,no,815,1634,105,191,388,2024-08-29_11h06.40.168,EXNAT_3_fMRI_Psychopy2023.1.3,2023.1.3,59.99525107780508,
1,0,1,0,,,,,,,,,,,#88BA3F,320.6774799823761,232.7152659893036,None,None,None,588.9909808055805,pseudo_text_01,13,2,1,2,Reading_pseudotext_no_click,None,"Felt,",,,,,OA063,001,no,815,1634,105,191,388,2024-08-29_11h06.40.168,EXNAT_3_fMRI_Psychopy2023.1.3,2023.1.3,59.99525107780508,
1,0,1,0,,,,,,,,,,,#F989A2,321.27707290649414,233.31485891342163,None,None,None,535.3542903101516,pseudo_text_01,14,2,1,2,Reading_pseudotext_no_click,None,die,,,,,OA063,001,no,815,1634,105,191,388,2024-08-29_11h06.40.168,EXNAT_3_fMRI_Psychopy2023.1.3,2023.1.3,59.99525107780508,
1,0,1,0,,,,,,,,,,,#D292F3,321.82697200775146,233.86475801467896,None,None,None,565.5609079175886,pseudo_text_01,15,2,1,2,Reading_pseudotext_no_click,None,sech,,,,,OA063,001,no,815,1634,105,191,388,2024-08-29_11h06.40.168,EXNAT_3_fMRI_Psychopy2023.1.3,2023.1.3,59.99525107780508,
1,0,1,0,,,,,,,,,,,#2AB7EF,322.41006779670715,234.44785380363464,None,None,None,704.345271115732,pseudo_text_01,16,2,1,2,Reading_pseudotext_no_click,None,"zurehmensassen,",,,,,OA063,001,no,815,1634,105,191,388,2024-08-29_11h06.40.168,EXNAT_3_fMRI_Psychopy2023.1.3,2023.1.3,59.99525107780508,
1,0,1,0,,,,,,,,,,,#D292F3,323.12617588043213,235.16396188735962,None,None,None,525.0,pseudo_text_01,17,2,1,2,Reading_pseudotext_no_click,None,um,,,,,OA063,001,no,815,1634,105,191,388,2024-08-29_11h06.40.168,EXNAT_3_fMRI_Psychopy2023.1.3,2023.1.3,59.99525107780508,
1,0,1,0,,,,,,,,,,,#F989A2,323.6597788333893,235.69756484031677,None,None,None,565.5609079175886,pseudo_text_01,18,2,1,2,Reading_pseudotext_no_click,None,Taul,,,,,OA063,001,no,815,1634,105,191,388,2024-08-29_11h06.40.168,EXNAT_3_fMRI_Psychopy2023.1.3,2023.1.3,59.99525107780508,
1,0,1,0,,,,,,,,,,,#88BA3F,324.24291586875916,236.28070187568665,None,None,None,608.1347442689457,pseudo_text_01,19,2,1,2,Reading_pseudotext_no_click,None,dieses,,,,,OA063,001,no,815,1634,105,191,388,2024-08-29_11h06.40.168,EXNAT_3_fMRI_Psychopy2023.1.3,2023.1.3,59.99525107780508,
1,0,1,0,,,,,,,,,,,#88BA3F,324.8595929145813,236.8973789215088,None,None,None,638.3413618763827,pseudo_text_01,20,2,1,2,Reading_pseudotext_no_click,None,roktenen,,,,,OA063,001,no,815,1634,105,191,388,2024-08-29_11h06.40.168,EXNAT_3_fMRI_Psychopy2023.1.3,2023.1.3,59.99525107780508,
1,0,1,0,,,,,,,,,,,#2AB7EF,325.51012992858887,237.54791593551636,None,None,None,717.4874011259027,pseudo_text_01,21,2,1,2,Reading_pseudotext_no_click,None,laläettolagischen,,,,,OA063,001,no,815,1634,105,191,388,2024-08-29_11h06.40.168,EXNAT_3_fMRI_Psychopy2023.1.3,2023.1.3,59.99525107780508,
1,0,1,0,,,,,,,,,,,#88BA3F,326.24328780174255,238.28107380867004,None,None,None,671.7790036438289,pseudo_text_01,22,2,1,2,Reading_pseudotext_no_click,None,Uneimdisses,,,,,OA063,001,no,815,1634,105,191,388,2024-08-29_11h06.40.168,EXNAT_3_fMRI_Psychopy2023.1.3,2023.1.3,59.99525107780508,
1,0,1,0,,,,,,,,,,,#F989A2,326.9261009693146,238.96388697624207,None,None,None,525.0,pseudo_text_01,23,2,1,2,Reading_pseudotext_no_click,None,zu,,,,,OA063,001,no,815,1634,105,191,388,2024-08-29_11h06.40.168,EXNAT_3_fMRI_Psychopy2023.1.3,2023.1.3,59.99525107780508,
1,0,1,0,,,,,,,,,,,#2AB7EF,327.45954990386963,239.49733591079712,None,None,None,588.9909808055805,pseudo_text_01,24,2,1,2,Reading_pseudotext_no_click,None,seis.,,,,,OA063,001,no,815,1634,105,191,388,2024-08-29_11h06.40.168,EXNAT_3_fMRI_Psychopy2023.1.3,2023.1.3,59.99525107780508,
1,0,1,0,,,,,,,,,,,#D292F3,328.05947184562683,240.09725785255432,None,None,None,535.3542903101516,pseudo_text_01,25,2,1,2,Reading_pseudotext_no_click,None,Aus,,,,,OA063,001,no,815,1634,105,191,388,2024-08-29_11h06.40.168,EXNAT_3_fMRI_Psychopy2023.1.3,2023.1.3,59.99525107780508,
1,0,1,0,,,,,,,,,,,#88BA3F,328.60920691490173,240.64699292182922,None,None,None,588.9909808055805,pseudo_text_01,26,2,1,2,Reading_pseudotext_no_click,None,asser,,,,,OA063,001,no,815,1634,105,191,388,2024-08-29_11h06.40.168,EXNAT_3_fMRI_Psychopy2023.1.3,2023.1.3,59.99525107780508,
1,0,1,0,,,,,,,,,,,#88BA3F,329.2089948654175,241.24678087234497,None,None,None,565.5609079175886,pseudo_text_01,27,2,1,2,Reading_pseudotext_no_click,None,Felt,,,,,OA063,001,no,815,1634,105,191,388,2024-08-29_11h06.40.168,EXNAT_3_fMRI_Psychopy2023.1.3,2023.1.3,59.99525107780508,
1,0,1,0,,,,,,,,,,,#88BA3F,329.7924499511719,241.83023595809937,None,None,None,638.3413618763827,pseudo_text_01,28,2,1,2,Reading_pseudotext_no_click,None,strouten,,,,,OA063,001,no,815,1634,105,191,388,2024-08-29_11h06.40.168,EXNAT_3_fMRI_Psychopy2023.1.3,2023.1.3,59.99525107780508,
1,0,1,0,,,,,,,,,,,#2AB7EF,330.44219994544983,242.47998595237732,None,None,None,535.3542903101516,pseudo_text_01,29,2,1,2,Reading_pseudotext_no_click,None,sie,,,,,OA063,001,no,815,1634,105,191,388,2024-08-29_11h06.40.168,EXNAT_3_fMRI_Psychopy2023.1.3,2023.1.3,59.99525107780508,
1,0,1,0,,,,,,,,,,,#D292F3,330.9923539161682,243.0301399230957,None,None,None,650.7085806203031,pseudo_text_01,30,2,1,2,Reading_pseudotext_no_click,None,"zurehmen,",,,,,OA063,001,no,815,1634,105,191,388,2024-08-29_11h06.40.168,EXNAT_3_fMRI_Psychopy2023.1.3,2023.1.3,59.99525107780508,
1,0,1,0,,,,,,,,,,,#2AB7EF,331.6592688560486,243.69705486297607,None,None,None,689.3196825334613,pseudo_text_01,31,2,1,2,Reading_pseudotext_no_click,None,aufgeschüftet,,,,,OA063,001,no,815,1634,105,191,388,2024-08-29_11h06.40.168,EXNAT_3_fMRI_Psychopy2023.1.3,2023.1.3,59.99525107780508,
1,0,1,0,,,,,,,,,,,#D292F3,332.3589279651642,244.39671397209167,None,None,None,535.3542903101516,pseudo_text_01,32,2,1,2,Reading_pseudotext_no_click,None,mit,,,,,OA063,001,no,815,1634,105,191,388,2024-08-29_11h06.40.168,EXNAT_3_fMRI_Psychopy2023.1.3,2023.1.3,59.99525107780508,
1,0,1,0,,,,,,,,,,,#F989A2,332.9088819026947,244.9466679096222,None,None,None,661.7714347643748,pseudo_text_01,33,2,1,2,Reading_pseudotext_no_click,None,logernsten,,,,,OA063,001,no,815,1634,105,191,388,2024-08-29_11h06.40.168,EXNAT_3_fMRI_Psychopy2023.1.3,2023.1.3,59.99525107780508,
1,0,1,0,,,,,,,,,,,#2AB7EF,333.57545280456543,245.61323881149292,None,None,None,624.3205656508079,pseudo_text_01,34,2,1,2,Reading_pseudotext_no_click,None,Gebüten,,,,,OA063,001,no,815,1634,105,191,388,2024-08-29_11h06.40.168,EXNAT_3_fMRI_Psychopy2023.1.3,2023.1.3,59.99525107780508,
1,0,1,0,,,,,,,,,,,#F989A2,334.2085437774658,246.2463297843933,None,None,None,535.3542903101516,pseudo_text_01,35,2,1,2,Reading_pseudotext_no_click,None,und,,,,,OA063,001,no,815,1634,105,191,388,2024-08-29_11h06.40.168,EXNAT_3_fMRI_Psychopy2023.1.3,2023.1.3,59.99525107780508,
1,0,1,0,,,,,,,,,,,#F989A2,334.7588458061218,246.79663181304932,None,None,None,689.3196825334613,pseudo_text_01,36,2,1,2,Reading_pseudotext_no_click,None,"Umzuchmehnen,",,,,,OA063,001,no,815,1634,105,191,388,2024-08-29_11h06.40.168,EXNAT_3_fMRI_Psychopy2023.1.3,2023.1.3,59.99525107780508,
1,0,1,0,,,,,,,,,,,#2AB7EF,335.4584319591522,247.4962179660797,None,None,None,525.0,pseudo_text_01,37,2,1,2,Reading_pseudotext_no_click,None,um,,,,,OA063,001,no,815,1634,105,191,388,2024-08-29_11h06.40.168,EXNAT_3_fMRI_Psychopy2023.1.3,2023.1.3,59.99525107780508,
1,0,1,0,,,,,,,,,,,#F989A2,335.991751909256,248.02953791618347,None,None,None,535.3542903101516,pseudo_text_01,38,2,1,2,Reading_pseudotext_no_click,None,die,,,,,OA063,001,no,815,1634,105,191,388,2024-08-29_11h06.40.168,EXNAT_3_fMRI_Psychopy2023.1.3,2023.1.3,59.99525107780508,
1,0,1,0,,,,,,,,,,,#88BA3F,336.54233980178833,248.58012580871582,None,None,None,697.1010196096022,pseudo_text_01,39,2,1,2,Reading_pseudotext_no_click,None,meuwinierenden,,,,,OA063,001,no,815,1634,105,191,388,2024-08-29_11h06.40.168,EXNAT_3_fMRI_Psychopy2023.1.3,2023.1.3,59.99525107780508,
1,0,1,0,,,,,,,,,,,#88BA3F,337.2422618865967,249.28004789352417,None,None,None,650.7085806203031,pseudo_text_01,40,2,1,2,Reading_pseudotext_no_click,None,Öfermeste,,,,,OA063,001,no,815,1634,105,191,388,2024-08-29_11h06.40.168,EXNAT_3_fMRI_Psychopy2023.1.3,2023.1.3,59.99525107780508,
1,0,1,0,,,,,,,,,,,#2AB7EF,337.9086217880249,249.9464077949524,None,None,None,608.1347442689457,pseudo_text_01,41,2,1,2,Reading_pseudotext_no_click,None,dieses,,,,,OA063,001,no,815,1634,105,191,388,2024-08-29_11h06.40.168,EXNAT_3_fMRI_Psychopy2023.1.3,2023.1.3,59.99525107780508,
1,0,1,0,,,,,,,,,,,#2AB7EF,338.52563095092773,250.56341695785522,None,None,None,704.345271115732,pseudo_text_01,42,2,1,2,Reading_pseudotext_no_click,None,spöfistorichten,,,,,OA063,001,no,815,1634,105,191,388,2024-08-29_11h06.40.168,EXNAT_3_fMRI_Psychopy2023.1.3,2023.1.3,59.99525107780508,
1,0,1,0,,,,,,,,,,,#F989A2,339.2416088581085,251.279394865036,None,None,None,608.1347442689457,pseudo_text_01,43,2,1,2,Reading_pseudotext_no_click,None,Megens,,,,,OA063,001,no,815,1634,105,191,388,2024-08-29_11h06.40.168,EXNAT_3_fMRI_Psychopy2023.1.3,2023.1.3,59.99525107780508,
1,0,1,0,,,,,,,,,,,#F989A2,339.8580448627472,251.89583086967468,None,None,None,525.0,pseudo_text_01,44,2,1,2,Reading_pseudotext_no_click,None,zu,,,,,OA063,001,no,815,1634,105,191,388,2024-08-29_11h06.40.168,EXNAT_3_fMRI_Psychopy2023.1.3,2023.1.3,59.99525107780508,
1,0,1,0,,,,,,,,,,,#D292F3,340.39159083366394,252.42937684059143,None,None,None,661.7714347643748,pseudo_text_01,45,2,1,2,Reading_pseudotext_no_click,None,hunbeiren.,,,,,OA063,001,no,815,1634,105,191,388,2024-08-29_11h06.40.168,EXNAT_3_fMRI_Psychopy2023.1.3,2023.1.3,59.99525107780508,
1,0,1,0,,,,,,,,,,,#2AB7EF,341.05832600593567,253.09611201286316,None,None,None,525.0,pseudo_text_01,46,2,1,2,Reading_pseudotext_no_click,None,In,,,,,OA063,001,no,815,1634,105,191,388,2024-08-29_11h06.40.168,EXNAT_3_fMRI_Psychopy2023.1.3,2023.1.3,59.99525107780508,
1,0,1,0,,,,,,,,,,,#D292F3,341.5915689468384,253.62935495376587,None,None,None,661.7714347643748,pseudo_text_01,47,2,1,2,Reading_pseudotext_no_click,None,Guskatuten,,,,,OA063,001,no,815,1634,105,191,388,2024-08-29_11h06.40.168,EXNAT_3_fMRI_Psychopy2023.1.3,2023.1.3,59.99525107780508,
1,0,1,0,,,,,,,,,,,#D292F3,342.257878780365,254.29566478729248,None,None,None,535.3542903101516,pseudo_text_01,48,2,1,2,Reading_pseudotext_no_click,None,und,,,,,OA063,001,no,815,1634,105,191,388,2024-08-29_11h06.40.168,EXNAT_3_fMRI_Psychopy2023.1.3,2023.1.3,59.99525107780508,
1,0,1,0,,,,,,,,,,,#2AB7EF,342.8084387779236,254.84622478485107,None,None,None,689.3196825334613,pseudo_text_01,49,2,1,2,Reading_pseudotext_no_click,None,Elikerhitaten,,,,,OA063,001,no,815,1634,105,191,388,2024-08-29_11h06.40.168,EXNAT_3_fMRI_Psychopy2023.1.3,2023.1.3,59.99525107780508,
1,0,1,0,,,,,,,,,,,#88BA3F,343.50826478004456,255.54605078697205,None,None,None,638.3413618763827,pseudo_text_01,50,2,1,2,Reading_pseudotext_no_click,None,feltweib,,,,,OA063,001,no,815,1634,105,191,388,2024-08-29_11h06.40.168,EXNAT_3_fMRI_Psychopy2023.1.3,2023.1.3,59.99525107780508,
1,0,1,0,,,,,,,,,,,#D292F3,344.1580410003662,256.1958270072937,None,None,None,689.3196825334613,pseudo_text_01,51,2,1,2,Reading_pseudotext_no_click,None,önrogisierten,,,,,OA063,001,no,815,1634,105,191,388,2024-08-29_11h06.40.168,EXNAT_3_fMRI_Psychopy2023.1.3,2023.1.3,59.99525107780508,
1,0,1,0,,,,,,,,,,,#D292F3,344.857861995697,256.8956480026245,None,None,None,650.7085806203031,pseudo_text_01,52,2,1,2,Reading_pseudotext_no_click,None,Pachsekte,,,,,OA063,001,no,815,1634,105,191,388,2024-08-29_11h06.40.168,EXNAT_3_fMRI_Psychopy2023.1.3,2023.1.3,59.99525107780508,
1,0,1,0,,,,,,,,,,,#D292F3,345.5244917869568,257.5622777938843,None,None,None,671.7790036438289,pseudo_text_01,53,2,1,2,Reading_pseudotext_no_click,None,ärlendliche,,,,,OA063,001,no,815,1634,105,191,388,2024-08-29_11h06.40.168,EXNAT_3_fMRI_Psychopy2023.1.3,2023.1.3,59.99525107780508,
1,0,1,0,,,,,,,,,,,#F989A2,346.2081139087677,258.2458999156952,None,None,None,638.3413618763827,pseudo_text_01,54,2,1,2,Reading_pseudotext_no_click,None,Rinträge,,,,,OA063,001,no,815,1634,105,191,388,2024-08-29_11h06.40.168,EXNAT_3_fMRI_Psychopy2023.1.3,2023.1.3,59.99525107780508,
1,0,1,0,,,,,,,,,,,#2AB7EF,346.85748982429504,258.89527583122253,None,None,None,535.3542903101516,pseudo_text_01,55,2,1,2,Reading_pseudotext_no_click,None,und,,,,,OA063,001,no,815,1634,105,191,388,2024-08-29_11h06.40.168,EXNAT_3_fMRI_Psychopy2023.1.3,2023.1.3,59.99525107780508,
