loop_run1_single_reading.thisRepN,loop_run1_single_reading.thisTrialN,loop_run1_single_reading.thisN,loop_run1_single_reading.thisIndex,loop_run2_single_nback.thisRepN,loop_run2_single_nback.thisTrialN,loop_run2_single_nback.thisN,loop_run2_single_nback.thisIndex,loop_dual_task_blocks.thisRepN,loop_dual_task_blocks.thisTrialN,loop_dual_task_blocks.thisN,loop_dual_task_blocks.thisIndex,TriggerCount,TriggerTime,colour,global_onset_time,onset_time_rel2trigger,target,nback_response,nback_RT,duration,text_nr,trial_nr,block_nr_exp,run_nr,block_nr_run,block_name,n-back_level,word,question,button_pressed,chosen_ans,ans_correct,participant,session,testing_mode,RT_per_rectangle_oneback_single,RT_per_rectangle_twoback_single,RT_per_letter_baseline,RT_per_letter_oneback_dual,RT_per_letter_twoback_dual,date,expName,psychopyVersion,frameRate,
0,0,0,0,,,,,,,,,1,562.9992849826813,#D292F3,573.8676061630249,10.868321180343628,None,None,None,781.0126823623841,text_01,1,1,1,1,Reading_Baseline_main_no_click,None,Beim,,,,,OA07,001,no,1500,2000,145,274,321,2024-08-29_12h35.36.112,EXNAT_3_fMRI_Psychopy2023.1.3,2023.1.3,59.95674393006983,
0,0,0,0,,,,,,,,,,,#88BA3F,574.6683449745178,11.669059991836548,None,None,None,862.1569716130205,text_01,2,1,1,1,Reading_Baseline_main_no_click,None,Anblick,,,,,OA07,001,no,1500,2000,145,274,321,2024-08-29_12h35.36.112,EXNAT_3_fMRI_Psychopy2023.1.3,2023.1.3,59.95674393006983,
0,0,0,0,,,,,,,,,,,#F989A2,575.533928155899,12.534643173217773,None,None,None,739.2987818568758,text_01,3,1,1,1,Reading_Baseline_main_no_click,None,der,,,,,OA07,001,no,1500,2000,145,274,321,2024-08-29_12h35.36.112,EXNAT_3_fMRI_Psychopy2023.1.3,2023.1.3,59.95674393006983,
0,0,0,0,,,,,,,,,,,#D292F3,576.2836880683899,13.284403085708618,None,None,None,813.3684973029445,text_01,4,1,1,1,Reading_Baseline_main_no_click,None,Tiere,,,,,OA07,001,no,1500,2000,145,274,321,2024-08-29_12h35.36.112,EXNAT_3_fMRI_Psychopy2023.1.3,2023.1.3,59.95674393006983,
0,0,0,0,,,,,,,,,,,#88BA3F,577.1001970767975,14.100912094116211,None,None,None,781.0126823623841,text_01,5,1,1,1,Reading_Baseline_main_no_click,None,wird,,,,,OA07,001,no,1500,2000,145,274,321,2024-08-29_12h35.36.112,EXNAT_3_fMRI_Psychopy2023.1.3,2023.1.3,59.95674393006983,
0,0,0,0,,,,,,,,,,,#2AB7EF,577.9002630710602,14.900978088378906,None,None,None,813.3684973029445,text_01,6,1,1,1,Reading_Baseline_main_no_click,None,"klar,",,,,,OA07,001,no,1500,2000,145,274,321,2024-08-29_12h35.36.112,EXNAT_3_fMRI_Psychopy2023.1.3,2023.1.3,59.95674393006983,
0,0,0,0,,,,,,,,,,,#F989A2,578.7166981697083,15.717413187026978,None,None,None,813.3684973029445,text_01,7,1,1,1,Reading_Baseline_main_no_click,None,warum,,,,,OA07,001,no,1500,2000,145,274,321,2024-08-29_12h35.36.112,EXNAT_3_fMRI_Psychopy2023.1.3,2023.1.3,59.95674393006983,
0,0,0,0,,,,,,,,,,,#2AB7EF,579.5327351093292,16.53345012664795,None,None,None,739.2987818568758,text_01,8,1,1,1,Reading_Baseline_main_no_click,None,die,,,,,OA07,001,no,1500,2000,145,274,321,2024-08-29_12h35.36.112,EXNAT_3_fMRI_Psychopy2023.1.3,2023.1.3,59.95674393006983,
0,0,0,0,,,,,,,,,,,#88BA3F,580.2834260463715,17.284141063690186,None,None,None,881.5190235435762,text_01,9,1,1,1,Reading_Baseline_main_no_click,None,Seeleute,,,,,OA07,001,no,1500,2000,145,274,321,2024-08-29_12h35.36.112,EXNAT_3_fMRI_Psychopy2023.1.3,2023.1.3,59.95674393006983,
0,0,0,0,,,,,,,,,,,#88BA3F,581.1837651729584,18.1844801902771,None,None,None,927.6948145557637,text_01,10,1,1,1,Reading_Baseline_main_no_click,None,vergangener,,,,,OA07,001,no,1500,2000,145,274,321,2024-08-29_12h35.36.112,EXNAT_3_fMRI_Psychopy2023.1.3,2023.1.3,59.95674393006983,
0,0,0,0,,,,,,,,,,,#F989A2,582.1167080402374,19.117423057556152,None,None,None,940.3114642192601,text_01,11,1,1,1,Reading_Baseline_main_no_click,None,Jahrhunderte,,,,,OA07,001,no,1500,2000,145,274,321,2024-08-29_12h35.36.112,EXNAT_3_fMRI_Psychopy2023.1.3,2023.1.3,59.95674393006983,
0,0,0,0,,,,,,,,,,,#2AB7EF,583.0662770271301,20.066992044448853,None,None,None,813.3684973029445,text_01,12,1,1,1,Reading_Baseline_main_no_click,None,Angst,,,,,OA07,001,no,1500,2000,145,274,321,2024-08-29_12h35.36.112,EXNAT_3_fMRI_Psychopy2023.1.3,2023.1.3,59.95674393006983,
0,0,0,0,,,,,,,,,,,#F989A2,583.8826930522919,20.883408069610596,None,None,None,739.2987818568758,text_01,13,1,1,1,Reading_Baseline_main_no_click,None,vor,,,,,OA07,001,no,1500,2000,145,274,321,2024-08-29_12h35.36.112,EXNAT_3_fMRI_Psychopy2023.1.3,2023.1.3,59.95674393006983,
0,0,0,0,,,,,,,,,,,#D292F3,584.6325380802155,21.63325309753418,None,None,None,951.9176568319228,text_01,14,1,1,1,Reading_Baseline_main_no_click,None,Seeungeheuern,,,,,OA07,001,no,1500,2000,145,274,321,2024-08-29_12h35.36.112,EXNAT_3_fMRI_Psychopy2023.1.3,2023.1.3,59.95674393006983,
0,0,0,0,,,,,,,,,,,#88BA3F,585.599457025528,22.60017204284668,None,None,None,862.1569716130205,text_01,15,1,1,1,Reading_Baseline_main_no_click,None,hatten.,,,,,OA07,001,no,1500,2000,145,274,321,2024-08-29_12h35.36.112,EXNAT_3_fMRI_Psychopy2023.1.3,2023.1.3,59.95674393006983,
0,0,0,0,,,,,,,,,,,#D292F3,586.4662530422211,23.466968059539795,None,None,None,913.8748384841367,text_01,16,1,1,1,Reading_Baseline_main_no_click,None,Meterlange,,,,,OA07,001,no,1500,2000,145,274,321,2024-08-29_12h35.36.112,EXNAT_3_fMRI_Psychopy2023.1.3,2023.1.3,59.95674393006983,
0,0,0,0,,,,,,,,,,,#F989A2,587.3827121257782,24.383427143096924,None,None,None,898.5975637137518,text_01,17,1,1,1,Reading_Baseline_main_no_click,None,"Fangarme,",,,,,OA07,001,no,1500,2000,145,274,321,2024-08-29_12h35.36.112,EXNAT_3_fMRI_Psychopy2023.1.3,2023.1.3,59.95674393006983,
0,0,0,0,,,,,,,,,,,#D292F3,588.299751996994,25.300467014312744,None,None,None,839.8051230380679,text_01,18,1,1,1,Reading_Baseline_main_no_click,None,spitze,,,,,OA07,001,no,1500,2000,145,274,321,2024-08-29_12h35.36.112,EXNAT_3_fMRI_Psychopy2023.1.3,2023.1.3,59.95674393006983,
0,0,0,0,,,,,,,,,,,#2AB7EF,589.1491811275482,26.149896144866943,None,None,None,839.8051230380679,text_01,19,1,1,1,Reading_Baseline_main_no_click,None,Mäuler,,,,,OA07,001,no,1500,2000,145,274,321,2024-08-29_12h35.36.112,EXNAT_3_fMRI_Psychopy2023.1.3,2023.1.3,59.95674393006983,
0,0,0,0,,,,,,,,,,,#88BA3F,589.9985690116882,26.999284029006958,None,None,None,739.2987818568758,text_01,20,1,1,1,Reading_Baseline_main_no_click,None,und,,,,,OA07,001,no,1500,2000,145,274,321,2024-08-29_12h35.36.112,EXNAT_3_fMRI_Psychopy2023.1.3,2023.1.3,59.95674393006983,
0,0,0,0,,,,,,,,,,,#2AB7EF,590.7486021518707,27.749317169189453,None,None,None,862.1569716130205,text_01,21,1,1,1,Reading_Baseline_main_no_click,None,riesige,,,,,OA07,001,no,1500,2000,145,274,321,2024-08-29_12h35.36.112,EXNAT_3_fMRI_Psychopy2023.1.3,2023.1.3,59.95674393006983,
0,0,0,0,,,,,,,,,,,#F989A2,591.6151239871979,28.6158390045166,None,None,None,813.3684973029445,text_01,22,1,1,1,Reading_Baseline_main_no_click,None,Augen,,,,,OA07,001,no,1500,2000,145,274,321,2024-08-29_12h35.36.112,EXNAT_3_fMRI_Psychopy2023.1.3,2023.1.3,59.95674393006983,
0,0,0,0,,,,,,,,,,,#88BA3F,592.4317660331726,29.432481050491333,None,None,None,898.5975637137518,text_01,23,1,1,1,Reading_Baseline_main_no_click,None,verleihen,,,,,OA07,001,no,1500,2000,145,274,321,2024-08-29_12h35.36.112,EXNAT_3_fMRI_Psychopy2023.1.3,2023.1.3,59.95674393006983,
0,0,0,0,,,,,,,,,,,#2AB7EF,593.348137140274,30.348852157592773,None,None,None,739.2987818568758,text_01,24,1,1,1,Reading_Baseline_main_no_click,None,den,,,,,OA07,001,no,1500,2000,145,274,321,2024-08-29_12h35.36.112,EXNAT_3_fMRI_Psychopy2023.1.3,2023.1.3,59.95674393006983,
0,0,0,0,,,,,,,,,,,#D292F3,594.0986399650574,31.0993549823761,None,None,None,839.8051230380679,text_01,25,1,1,1,Reading_Baseline_main_no_click,None,großen,,,,,OA07,001,no,1500,2000,145,274,321,2024-08-29_12h35.36.112,EXNAT_3_fMRI_Psychopy2023.1.3,2023.1.3,59.95674393006983,
0,0,0,0,,,,,,,,,,,#F989A2,594.9485890865326,31.94930410385132,None,None,None,881.5190235435762,text_01,26,1,1,1,Reading_Baseline_main_no_click,None,Kalmaren,,,,,OA07,001,no,1500,2000,145,274,321,2024-08-29_12h35.36.112,EXNAT_3_fMRI_Psychopy2023.1.3,2023.1.3,59.95674393006983,
0,0,0,0,,,,,,,,,,,#D292F3,595.8481850624084,32.84890007972717,None,None,None,739.2987818568758,text_01,27,1,1,1,Reading_Baseline_main_no_click,None,ein,,,,,OA07,001,no,1500,2000,145,274,321,2024-08-29_12h35.36.112,EXNAT_3_fMRI_Psychopy2023.1.3,2023.1.3,59.95674393006983,
0,0,0,0,,,,,,,,,,,#88BA3F,596.5985960960388,33.599311113357544,None,None,None,982.0253647247682,text_01,28,1,1,1,Reading_Baseline_main_no_click,None,furchterregendes,,,,,OA07,001,no,1500,2000,145,274,321,2024-08-29_12h35.36.112,EXNAT_3_fMRI_Psychopy2023.1.3,2023.1.3,59.95674393006983,
0,0,0,0,,,,,,,,,,,#2AB7EF,597.5979821681976,34.59869718551636,None,None,None,898.5975637137518,text_01,29,1,1,1,Reading_Baseline_main_no_click,None,Aussehen.,,,,,OA07,001,no,1500,2000,145,274,321,2024-08-29_12h35.36.112,EXNAT_3_fMRI_Psychopy2023.1.3,2023.1.3,59.95674393006983,
0,0,0,0,,,,,,,,,,,#F989A2,598.5147531032562,35.51546812057495,None,None,None,739.2987818568758,text_01,30,1,1,1,Reading_Baseline_main_no_click,None,Vor,,,,,OA07,001,no,1500,2000,145,274,321,2024-08-29_12h35.36.112,EXNAT_3_fMRI_Psychopy2023.1.3,2023.1.3,59.95674393006983,
0,0,0,0,,,,,,,,,,,#D292F3,599.2644181251526,36.26513314247131,None,None,None,739.2987818568758,text_01,31,1,1,1,Reading_Baseline_main_no_click,None,der,,,,,OA07,001,no,1500,2000,145,274,321,2024-08-29_12h35.36.112,EXNAT_3_fMRI_Psychopy2023.1.3,2023.1.3,59.95674393006983,
0,0,0,0,,,,,,,,,,,#2AB7EF,600.0148129463196,37.015527963638306,None,None,None,813.3684973029445,text_01,32,1,1,1,Reading_Baseline_main_no_click,None,Küste,,,,,OA07,001,no,1500,2000,145,274,321,2024-08-29_12h35.36.112,EXNAT_3_fMRI_Psychopy2023.1.3,2023.1.3,59.95674393006983,
0,0,0,0,,,,,,,,,,,#88BA3F,600.8313670158386,37.83208203315735,None,None,None,839.8051230380679,text_01,33,1,1,1,Reading_Baseline_main_no_click,None,Chiles,,,,,OA07,001,no,1500,2000,145,274,321,2024-08-29_12h35.36.112,EXNAT_3_fMRI_Psychopy2023.1.3,2023.1.3,59.95674393006983,
0,0,0,0,,,,,,,,,,,#F989A2,601.6807899475098,38.68150496482849,None,None,None,781.0126823623841,text_01,34,1,1,1,Reading_Baseline_main_no_click,None,sind,,,,,OA07,001,no,1500,2000,145,274,321,2024-08-29_12h35.36.112,EXNAT_3_fMRI_Psychopy2023.1.3,2023.1.3,59.95674393006983,
0,0,0,0,,,,,,,,,,,#88BA3F,602.4639980792999,39.46471309661865,None,None,None,739.2987818568758,text_01,35,1,1,1,Reading_Baseline_main_no_click,None,sie,,,,,OA07,001,no,1500,2000,145,274,321,2024-08-29_12h35.36.112,EXNAT_3_fMRI_Psychopy2023.1.3,2023.1.3,59.95674393006983,
0,0,0,0,,,,,,,,,,,#F989A2,603.2142970561981,40.215012073516846,None,None,None,862.1569716130205,text_01,36,1,1,1,Reading_Baseline_main_no_click,None,aktuell,,,,,OA07,001,no,1500,2000,145,274,321,2024-08-29_12h35.36.112,EXNAT_3_fMRI_Psychopy2023.1.3,2023.1.3,59.95674393006983,
0,0,0,0,,,,,,,,,,,#F989A2,604.0806269645691,41.08134198188782,None,None,None,725.0,text_01,37,1,1,1,Reading_Baseline_main_no_click,None,in,,,,,OA07,001,no,1500,2000,145,274,321,2024-08-29_12h35.36.112,EXNAT_3_fMRI_Psychopy2023.1.3,2023.1.3,59.95674393006983,
0,0,0,0,,,,,,,,,,,#88BA3F,604.8140041828156,41.81471920013428,None,None,None,839.8051230380679,text_01,38,1,1,1,Reading_Baseline_main_no_click,None,Massen,,,,,OA07,001,no,1500,2000,145,274,321,2024-08-29_12h35.36.112,EXNAT_3_fMRI_Psychopy2023.1.3,2023.1.3,59.95674393006983,
0,0,0,0,,,,,,,,,,,#D292F3,605.6636919975281,42.6644070148468,None,None,None,725.0,text_01,39,1,1,1,Reading_Baseline_main_no_click,None,zu,,,,,OA07,001,no,1500,2000,145,274,321,2024-08-29_12h35.36.112,EXNAT_3_fMRI_Psychopy2023.1.3,2023.1.3,59.95674393006983,
0,0,0,0,,,,,,,,,,,#D292F3,606.3971500396729,43.39786505699158,None,None,None,839.8051230380679,text_01,40,1,1,1,Reading_Baseline_main_no_click,None,sehen.,,,,,OA07,001,no,1500,2000,145,274,321,2024-08-29_12h35.36.112,EXNAT_3_fMRI_Psychopy2023.1.3,2023.1.3,59.95674393006983,
0,0,0,0,,,,,,,,,,,#88BA3F,607.2475781440735,44.24829316139221,None,None,None,881.5190235435762,text_01,41,1,1,1,Reading_Baseline_main_no_click,None,Hunderte,,,,,OA07,001,no,1500,2000,145,274,321,2024-08-29_12h35.36.112,EXNAT_3_fMRI_Psychopy2023.1.3,2023.1.3,59.95674393006983,
0,0,0,0,,,,,,,,,,,#F989A2,608.1468210220337,45.14753603935242,None,None,None,739.2987818568758,text_01,42,1,1,1,Reading_Baseline_main_no_click,None,von,,,,,OA07,001,no,1500,2000,145,274,321,2024-08-29_12h35.36.112,EXNAT_3_fMRI_Psychopy2023.1.3,2023.1.3,59.95674393006983,
0,0,0,0,,,,,,,,,,,#2AB7EF,608.8970191478729,45.89773416519165,None,None,None,881.5190235435762,text_01,43,1,1,1,Reading_Baseline_main_no_click,None,riesigen,,,,,OA07,001,no,1500,2000,145,274,321,2024-08-29_12h35.36.112,EXNAT_3_fMRI_Psychopy2023.1.3,2023.1.3,59.95674393006983,
0,0,0,0,,,,,,,,,,,#88BA3F,609.7970941066742,46.79780912399292,None,None,None,951.9176568319228,text_01,44,1,1,1,Reading_Baseline_main_no_click,None,Tintenfischen,,,,,OA07,001,no,1500,2000,145,274,321,2024-08-29_12h35.36.112,EXNAT_3_fMRI_Psychopy2023.1.3,2023.1.3,59.95674393006983,
0,0,0,0,,,,,,,,,,,#F989A2,610.7637650966644,47.764480113983154,None,None,None,898.5975637137518,text_01,45,1,1,1,Reading_Baseline_main_no_click,None,schwimmen,,,,,OA07,001,no,1500,2000,145,274,321,2024-08-29_12h35.36.112,EXNAT_3_fMRI_Psychopy2023.1.3,2023.1.3,59.95674393006983,
0,0,0,0,,,,,,,,,,,#88BA3F,611.6799120903015,48.68062710762024,None,None,None,725.0,text_01,46,1,1,1,Reading_Baseline_main_no_click,None,in,,,,,OA07,001,no,1500,2000,145,274,321,2024-08-29_12h35.36.112,EXNAT_3_fMRI_Psychopy2023.1.3,2023.1.3,59.95674393006983,
0,0,0,0,,,,,,,,,,,#2AB7EF,612.4132010936737,49.41391611099243,None,None,None,739.2987818568758,text_01,47,1,1,1,Reading_Baseline_main_no_click,None,den,,,,,OA07,001,no,1500,2000,145,274,321,2024-08-29_12h35.36.112,EXNAT_3_fMRI_Psychopy2023.1.3,2023.1.3,59.95674393006983,
0,0,0,0,,,,,,,,,,,#2AB7EF,613.1632471084595,50.1639621257782,None,None,None,862.1569716130205,text_01,48,1,1,1,Reading_Baseline_main_no_click,None,flachen,,,,,OA07,001,no,1500,2000,145,274,321,2024-08-29_12h35.36.112,EXNAT_3_fMRI_Psychopy2023.1.3,2023.1.3,59.95674393006983,
0,0,0,0,,,,,,,,,,,#D292F3,614.0303061008453,51.03102111816406,None,None,None,898.5975637137518,text_01,49,1,1,1,Reading_Baseline_main_no_click,None,Gewässern,,,,,OA07,001,no,1500,2000,145,274,321,2024-08-29_12h35.36.112,EXNAT_3_fMRI_Psychopy2023.1.3,2023.1.3,59.95674393006983,
0,0,0,0,,,,,,,,,,,#2AB7EF,614.9462671279907,51.94698214530945,None,None,None,739.2987818568758,text_01,50,1,1,1,Reading_Baseline_main_no_click,None,und,,,,,OA07,001,no,1500,2000,145,274,321,2024-08-29_12h35.36.112,EXNAT_3_fMRI_Psychopy2023.1.3,2023.1.3,59.95674393006983,
0,0,0,0,,,,,,,,,,,#F989A2,615.6963970661163,52.69711208343506,None,None,None,862.1569716130205,text_01,51,1,1,1,Reading_Baseline_main_no_click,None,fressen,,,,,OA07,001,no,1500,2000,145,274,321,2024-08-29_12h35.36.112,EXNAT_3_fMRI_Psychopy2023.1.3,2023.1.3,59.95674393006983,
0,0,0,0,,,,,,,,,,,#D292F3,616.5628581047058,53.563573122024536,None,None,None,781.0126823623841,text_01,52,1,1,1,Reading_Baseline_main_no_click,None,dort,,,,,OA07,001,no,1500,2000,145,274,321,2024-08-29_12h35.36.112,EXNAT_3_fMRI_Psychopy2023.1.3,2023.1.3,59.95674393006983,
0,0,0,0,,,,,,,,,,,#88BA3F,617.3461241722107,54.34683918952942,None,None,None,739.2987818568758,text_01,53,1,1,1,Reading_Baseline_main_no_click,None,die,,,,,OA07,001,no,1500,2000,145,274,321,2024-08-29_12h35.36.112,EXNAT_3_fMRI_Psychopy2023.1.3,2023.1.3,59.95674393006983,
0,0,0,0,,,,,,,,,,,#F989A2,618.0964121818542,55.097127199172974,None,None,None,862.1569716130205,text_01,54,1,1,1,Reading_Baseline_main_no_click,None,Fische.,,,,,OA07,001,no,1500,2000,145,274,321,2024-08-29_12h35.36.112,EXNAT_3_fMRI_Psychopy2023.1.3,2023.1.3,59.95674393006983,
0,0,0,0,,,,,,,,,,,#88BA3F,618.9632639884949,55.9639790058136,None,None,None,951.9176568319228,text_01,55,1,1,1,Reading_Baseline_main_no_click,None,Normalerweise,,,,,OA07,001,no,1500,2000,145,274,321,2024-08-29_12h35.36.112,EXNAT_3_fMRI_Psychopy2023.1.3,2023.1.3,59.95674393006983,
0,0,0,0,,,,,,,,,,,#2AB7EF,619.929260969162,56.92997598648071,None,None,None,781.0126823623841,text_01,56,1,1,1,Reading_Baseline_main_no_click,None,sind,,,,,OA07,001,no,1500,2000,145,274,321,2024-08-29_12h35.36.112,EXNAT_3_fMRI_Psychopy2023.1.3,2023.1.3,59.95674393006983,
0,0,0,0,,,,,,,,,,,#F989A2,620.712434053421,57.713149070739746,None,None,None,739.2987818568758,text_01,57,1,1,1,Reading_Baseline_main_no_click,None,die,,,,,OA07,001,no,1500,2000,145,274,321,2024-08-29_12h35.36.112,EXNAT_3_fMRI_Psychopy2023.1.3,2023.1.3,59.95674393006983,
0,0,0,0,,,,,,,,,,,#2AB7EF,621.4626340866089,58.46334910392761,None,None,None,839.8051230380679,text_01,58,1,1,1,Reading_Baseline_main_no_click,None,großen,,,,,OA07,001,no,1500,2000,145,274,321,2024-08-29_12h35.36.112,EXNAT_3_fMRI_Psychopy2023.1.3,2023.1.3,59.95674393006983,
0,0,0,0,,,,,,,,,,,#D292F3,622.3124799728394,59.31319499015808,None,None,None,862.1569716130205,text_01,59,1,1,1,Reading_Baseline_main_no_click,None,Kalmare,,,,,OA07,001,no,1500,2000,145,274,321,2024-08-29_12h35.36.112,EXNAT_3_fMRI_Psychopy2023.1.3,2023.1.3,59.95674393006983,
0,0,0,0,,,,,,,,,,,#D292F3,623.1789031028748,60.17961812019348,None,None,None,739.2987818568758,text_01,60,1,1,1,Reading_Baseline_main_no_click,None,nur,,,,,OA07,001,no,1500,2000,145,274,321,2024-08-29_12h35.36.112,EXNAT_3_fMRI_Psychopy2023.1.3,2023.1.3,59.95674393006983,
0,0,0,0,,,,,,,,,,,#F989A2,623.928964138031,60.92967915534973,None,None,None,839.8051230380679,text_01,61,1,1,1,Reading_Baseline_main_no_click,None,schwer,,,,,OA07,001,no,1500,2000,145,274,321,2024-08-29_12h35.36.112,EXNAT_3_fMRI_Psychopy2023.1.3,2023.1.3,59.95674393006983,
0,0,0,0,,,,,,,,,,,#D292F3,624.7787289619446,61.779443979263306,None,None,None,725.0,text_01,62,1,1,1,Reading_Baseline_main_no_click,None,zu,,,,,OA07,001,no,1500,2000,145,274,321,2024-08-29_12h35.36.112,EXNAT_3_fMRI_Psychopy2023.1.3,2023.1.3,59.95674393006983,
0,0,0,0,,,,,,,,,,,#F989A2,625.5124881267548,62.513203144073486,None,None,None,927.6948145557637,text_01,63,1,1,1,Reading_Baseline_main_no_click,None,beobachten.,,,,,OA07,001,no,1500,2000,145,274,321,2024-08-29_12h35.36.112,EXNAT_3_fMRI_Psychopy2023.1.3,2023.1.3,59.95674393006983,
0,0,0,0,,,,,,,,,,,#2AB7EF,626.4453749656677,63.44608998298645,None,None,None,739.2987818568758,text_01,64,1,1,1,Reading_Baseline_main_no_click,None,Sie,,,,,OA07,001,no,1500,2000,145,274,321,2024-08-29_12h35.36.112,EXNAT_3_fMRI_Psychopy2023.1.3,2023.1.3,59.95674393006983,
0,0,0,0,,,,,,,,,,,#88BA3F,627.1953480243683,64.19606304168701,None,None,None,813.3684973029445,text_01,65,1,1,1,Reading_Baseline_main_no_click,None,leben,,,,,OA07,001,no,1500,2000,145,274,321,2024-08-29_12h35.36.112,EXNAT_3_fMRI_Psychopy2023.1.3,2023.1.3,59.95674393006983,
0,0,0,0,,,,,,,,,,,#F989A2,628.0120561122894,65.01277112960815,None,None,None,913.8748384841367,text_01,66,1,1,1,Reading_Baseline_main_no_click,None,eigentlich,,,,,OA07,001,no,1500,2000,145,274,321,2024-08-29_12h35.36.112,EXNAT_3_fMRI_Psychopy2023.1.3,2023.1.3,59.95674393006983,
0,0,0,0,,,,,,,,,,,#2AB7EF,628.9283859729767,65.92910099029541,None,None,None,725.0,text_01,67,1,1,1,Reading_Baseline_main_no_click,None,im,,,,,OA07,001,no,1500,2000,145,274,321,2024-08-29_12h35.36.112,EXNAT_3_fMRI_Psychopy2023.1.3,2023.1.3,59.95674393006983,
0,0,0,0,,,,,,,,,,,#88BA3F,629.6620190143585,66.66273403167725,None,None,None,862.1569716130205,text_01,68,1,1,1,Reading_Baseline_main_no_click,None,offenen,,,,,OA07,001,no,1500,2000,145,274,321,2024-08-29_12h35.36.112,EXNAT_3_fMRI_Psychopy2023.1.3,2023.1.3,59.95674393006983,
0,0,0,0,,,,,,,,,,,#F989A2,630.5284571647644,67.52917218208313,None,None,None,813.3684973029445,text_01,69,1,1,1,Reading_Baseline_main_no_click,None,Meer.,,,,,OA07,001,no,1500,2000,145,274,321,2024-08-29_12h35.36.112,EXNAT_3_fMRI_Psychopy2023.1.3,2023.1.3,59.95674393006983,
0,0,0,0,,,,,,,,,,,#2AB7EF,631.3448650836945,68.34558010101318,None,None,None,739.2987818568758,text_01,70,1,1,1,Reading_Baseline_main_no_click,None,Nur,,,,,OA07,001,no,1500,2000,145,274,321,2024-08-29_12h35.36.112,EXNAT_3_fMRI_Psychopy2023.1.3,2023.1.3,59.95674393006983,
0,0,0,0,,,,,,,,,,,#D292F3,632.0949561595917,69.0956711769104,None,None,None,839.8051230380679,text_01,71,1,1,1,Reading_Baseline_main_no_click,None,nachts,,,,,OA07,001,no,1500,2000,145,274,321,2024-08-29_12h35.36.112,EXNAT_3_fMRI_Psychopy2023.1.3,2023.1.3,59.95674393006983,
0,0,0,0,,,,,,,,,,,#88BA3F,632.9451260566711,69.94584107398987,None,None,None,839.8051230380679,text_01,72,1,1,1,Reading_Baseline_main_no_click,None,kommen,,,,,OA07,001,no,1500,2000,145,274,321,2024-08-29_12h35.36.112,EXNAT_3_fMRI_Psychopy2023.1.3,2023.1.3,59.95674393006983,
0,0,0,0,,,,,,,,,,,#88BA3F,633.7946610450745,70.79537606239319,None,None,None,739.2987818568758,text_01,73,1,1,1,Reading_Baseline_main_no_click,None,sie,,,,,OA07,001,no,1500,2000,145,274,321,2024-08-29_12h35.36.112,EXNAT_3_fMRI_Psychopy2023.1.3,2023.1.3,59.95674393006983,
0,0,0,0,,,,,,,,,,,#F989A2,634.5445671081543,71.54528212547302,None,None,None,725.0,text_01,74,1,1,1,Reading_Baseline_main_no_click,None,an,,,,,OA07,001,no,1500,2000,145,274,321,2024-08-29_12h35.36.112,EXNAT_3_fMRI_Psychopy2023.1.3,2023.1.3,59.95674393006983,
0,0,0,0,,,,,,,,,,,#D292F3,635.277930021286,72.27864503860474,None,None,None,739.2987818568758,text_01,75,1,1,1,Reading_Baseline_main_no_click,None,die,,,,,OA07,001,no,1500,2000,145,274,321,2024-08-29_12h35.36.112,EXNAT_3_fMRI_Psychopy2023.1.3,2023.1.3,59.95674393006983,
0,0,0,0,,,,,,,,,,,#2AB7EF,636.0285811424255,73.02929615974426,None,None,None,927.6948145557637,text_01,76,1,1,1,Reading_Baseline_main_no_click,None,"Oberfläche,",,,,,OA07,001,no,1500,2000,145,274,321,2024-08-29_12h35.36.112,EXNAT_3_fMRI_Psychopy2023.1.3,2023.1.3,59.95674393006983,
0,0,0,0,,,,,,,,,,,#88BA3F,636.9610760211945,73.96179103851318,None,None,None,725.0,text_01,77,1,1,1,Reading_Baseline_main_no_click,None,um,,,,,OA07,001,no,1500,2000,145,274,321,2024-08-29_12h35.36.112,EXNAT_3_fMRI_Psychopy2023.1.3,2023.1.3,59.95674393006983,
0,0,0,0,,,,,,,,,,,#2AB7EF,637.6944689750671,74.69518399238586,None,None,None,839.8051230380679,text_01,78,1,1,1,Reading_Baseline_main_no_click,None,kleine,,,,,OA07,001,no,1500,2000,145,274,321,2024-08-29_12h35.36.112,EXNAT_3_fMRI_Psychopy2023.1.3,2023.1.3,59.95674393006983,
0,0,0,0,,,,,,,,,,,#88BA3F,638.5443789958954,75.54509401321411,None,None,None,839.8051230380679,text_01,79,1,1,1,Reading_Baseline_main_no_click,None,Fische,,,,,OA07,001,no,1500,2000,145,274,321,2024-08-29_12h35.36.112,EXNAT_3_fMRI_Psychopy2023.1.3,2023.1.3,59.95674393006983,
0,0,0,0,,,,,,,,,,,#D292F3,639.3942580223083,76.39497303962708,None,None,None,725.0,text_01,80,1,1,1,Reading_Baseline_main_no_click,None,zu,,,,,OA07,001,no,1500,2000,145,274,321,2024-08-29_12h35.36.112,EXNAT_3_fMRI_Psychopy2023.1.3,2023.1.3,59.95674393006983,
0,0,0,0,,,,,,,,,,,#F989A2,640.1285400390625,77.12925505638123,None,None,None,839.8051230380679,text_01,81,1,1,1,Reading_Baseline_main_no_click,None,jagen.,,,,,OA07,001,no,1500,2000,145,274,321,2024-08-29_12h35.36.112,EXNAT_3_fMRI_Psychopy2023.1.3,2023.1.3,59.95674393006983,
0,0,0,0,,,,,,,,,,,#D292F3,640.977518081665,77.97823309898376,None,None,None,781.0126823623841,text_01,82,1,1,1,Reading_Baseline_main_no_click,None,Seit,,,,,OA07,001,no,1500,2000,145,274,321,2024-08-29_12h35.36.112,EXNAT_3_fMRI_Psychopy2023.1.3,2023.1.3,59.95674393006983,
0,0,0,0,,,,,,,,,,,#2AB7EF,641.7607100009918,78.76142501831055,None,None,None,781.0126823623841,text_01,83,1,1,1,Reading_Baseline_main_no_click,None,zwei,,,,,OA07,001,no,1500,2000,145,274,321,2024-08-29_12h35.36.112,EXNAT_3_fMRI_Psychopy2023.1.3,2023.1.3,59.95674393006983,
0,0,0,0,,,,,,,,,,,#D292F3,642.5445971488953,79.54531216621399,None,None,None,839.8051230380679,text_01,84,1,1,1,Reading_Baseline_main_no_click,None,Wochen,,,,,OA07,001,no,1500,2000,145,274,321,2024-08-29_12h35.36.112,EXNAT_3_fMRI_Psychopy2023.1.3,2023.1.3,59.95674393006983,
0,0,0,0,,,,,,,,,,,#88BA3F,643.3939831256866,80.39469814300537,None,None,None,781.0126823623841,text_01,85,1,1,1,Reading_Baseline_main_no_click,None,aber,,,,,OA07,001,no,1500,2000,145,274,321,2024-08-29_12h35.36.112,EXNAT_3_fMRI_Psychopy2023.1.3,2023.1.3,59.95674393006983,
0,0,0,0,,,,,,,,,,,#88BA3F,644.1772410869598,81.17795610427856,None,None,None,781.0126823623841,text_01,86,1,1,1,Reading_Baseline_main_no_click,None,sind,,,,,OA07,001,no,1500,2000,145,274,321,2024-08-29_12h35.36.112,EXNAT_3_fMRI_Psychopy2023.1.3,2023.1.3,59.95674393006983,
0,0,0,0,,,,,,,,,,,#D292F3,644.9604949951172,81.96121001243591,None,None,None,739.2987818568758,text_01,87,1,1,1,Reading_Baseline_main_no_click,None,sie,,,,,OA07,001,no,1500,2000,145,274,321,2024-08-29_12h35.36.112,EXNAT_3_fMRI_Psychopy2023.1.3,2023.1.3,59.95674393006983,
0,0,0,0,,,,,,,,,,,#2AB7EF,645.7105159759521,82.71123099327087,None,None,None,781.0126823623841,text_01,88,1,1,1,Reading_Baseline_main_no_click,None,auch,,,,,OA07,001,no,1500,2000,145,274,321,2024-08-29_12h35.36.112,EXNAT_3_fMRI_Psychopy2023.1.3,2023.1.3,59.95674393006983,
0,0,0,0,,,,,,,,,,,#F989A2,646.4937081336975,83.49442315101624,None,None,None,739.2987818568758,text_01,89,1,1,1,Reading_Baseline_main_no_click,None,bei,,,,,OA07,001,no,1500,2000,145,274,321,2024-08-29_12h35.36.112,EXNAT_3_fMRI_Psychopy2023.1.3,2023.1.3,59.95674393006983,
0,0,0,0,,,,,,,,,,,#88BA3F,647.2439141273499,84.24462914466858,None,None,None,913.8748384841367,text_01,90,1,1,1,Reading_Baseline_main_no_click,None,Tageslicht,,,,,OA07,001,no,1500,2000,145,274,321,2024-08-29_12h35.36.112,EXNAT_3_fMRI_Psychopy2023.1.3,2023.1.3,59.95674393006983,
0,0,0,0,,,,,,,,,,,#D292F3,648.1603889465332,85.16110396385193,None,None,None,739.2987818568758,text_01,91,1,1,1,Reading_Baseline_main_no_click,None,vor,,,,,OA07,001,no,1500,2000,145,274,321,2024-08-29_12h35.36.112,EXNAT_3_fMRI_Psychopy2023.1.3,2023.1.3,59.95674393006983,
0,0,0,0,,,,,,,,,,,#F989A2,648.9101061820984,85.91082119941711,None,None,None,739.2987818568758,text_01,92,1,1,1,Reading_Baseline_main_no_click,None,der,,,,,OA07,001,no,1500,2000,145,274,321,2024-08-29_12h35.36.112,EXNAT_3_fMRI_Psychopy2023.1.3,2023.1.3,59.95674393006983,
0,0,0,0,,,,,,,,,,,#F989A2,649.6602540016174,86.66096901893616,None,None,None,813.3684973029445,text_01,93,1,1,1,Reading_Baseline_main_no_click,None,Küste,,,,,OA07,001,no,1500,2000,145,274,321,2024-08-29_12h35.36.112,EXNAT_3_fMRI_Psychopy2023.1.3,2023.1.3,59.95674393006983,
0,0,0,0,,,,,,,,,,,#2AB7EF,650.4764549732208,87.47716999053955,None,None,None,725.0,text_01,94,1,1,1,Reading_Baseline_main_no_click,None,zu,,,,,OA07,001,no,1500,2000,145,274,321,2024-08-29_12h35.36.112,EXNAT_3_fMRI_Psychopy2023.1.3,2023.1.3,59.95674393006983,
0,0,0,0,,,,,,,,,,,#D292F3,651.2099661827087,88.21068120002747,None,None,None,839.8051230380679,text_01,95,1,1,1,Reading_Baseline_main_no_click,None,sehen.,,,,,OA07,001,no,1500,2000,145,274,321,2024-08-29_12h35.36.112,EXNAT_3_fMRI_Psychopy2023.1.3,2023.1.3,59.95674393006983,
0,0,0,0,,,,,,,,,,,#2AB7EF,652.0602719783783,89.06098699569702,None,None,None,881.5190235435762,text_01,96,1,1,1,Reading_Baseline_main_no_click,None,Zunächst,,,,,OA07,001,no,1500,2000,145,274,321,2024-08-29_12h35.36.112,EXNAT_3_fMRI_Psychopy2023.1.3,2023.1.3,59.95674393006983,
0,0,0,0,,,,,,,,,,,#D292F3,652.9597940444946,89.96050906181335,None,None,None,839.8051230380679,text_01,97,1,1,1,Reading_Baseline_main_no_click,None,wurden,,,,,OA07,001,no,1500,2000,145,274,321,2024-08-29_12h35.36.112,EXNAT_3_fMRI_Psychopy2023.1.3,2023.1.3,59.95674393006983,
0,0,0,0,,,,,,,,,,,#2AB7EF,653.8095459938049,90.81026101112366,None,None,None,781.0126823623841,text_01,98,1,1,1,Reading_Baseline_main_no_click,None,mehr,,,,,OA07,001,no,1500,2000,145,274,321,2024-08-29_12h35.36.112,EXNAT_3_fMRI_Psychopy2023.1.3,2023.1.3,59.95674393006983,
0,0,0,0,,,,,,,,,,,#D292F3,654.5929770469666,91.59369206428528,None,None,None,739.2987818568758,text_01,99,1,1,1,Reading_Baseline_main_no_click,None,als,,,,,OA07,001,no,1500,2000,145,274,321,2024-08-29_12h35.36.112,EXNAT_3_fMRI_Psychopy2023.1.3,2023.1.3,59.95674393006983,
0,0,0,0,,,,,,,,,,,#88BA3F,655.3439710140228,92.34468603134155,None,None,None,739.2987818568758,text_01,100,1,1,1,Reading_Baseline_main_no_click,None,200,,,,,OA07,001,no,1500,2000,145,274,321,2024-08-29_12h35.36.112,EXNAT_3_fMRI_Psychopy2023.1.3,2023.1.3,59.95674393006983,
0,0,0,0,,,,,,,,,,,#2AB7EF,656.0932061672211,93.0939211845398,None,None,None,862.1569716130205,text_01,101,1,1,1,Reading_Baseline_main_no_click,None,Kalmare,,,,,OA07,001,no,1500,2000,145,274,321,2024-08-29_12h35.36.112,EXNAT_3_fMRI_Psychopy2023.1.3,2023.1.3,59.95674393006983,
0,0,0,0,,,,,,,,,,,#F989A2,656.9596860408783,93.96040105819702,None,None,None,739.2987818568758,text_01,102,1,1,1,Reading_Baseline_main_no_click,None,vor,,,,,OA07,001,no,1500,2000,145,274,321,2024-08-29_12h35.36.112,EXNAT_3_fMRI_Psychopy2023.1.3,2023.1.3,59.95674393006983,
0,0,0,0,,,,,,,,,,,#2AB7EF,657.7096831798553,94.71039819717407,None,None,None,813.3684973029445,text_01,103,1,1,1,Reading_Baseline_main_no_click,None,einer,,,,,OA07,001,no,1500,2000,145,274,321,2024-08-29_12h35.36.112,EXNAT_3_fMRI_Psychopy2023.1.3,2023.1.3,59.95674393006983,
0,0,0,0,,,,,,,,,,,#88BA3F,658.5264329910278,95.52714800834656,None,None,None,813.3684973029445,text_01,104,1,1,1,Reading_Baseline_main_no_click,None,Insel,,,,,OA07,001,no,1500,2000,145,274,321,2024-08-29_12h35.36.112,EXNAT_3_fMRI_Psychopy2023.1.3,2023.1.3,59.95674393006983,
0,0,0,0,,,,,,,,,,,#2AB7EF,659.3425590991974,96.34327411651611,None,None,None,739.2987818568758,text_01,105,1,1,1,Reading_Baseline_main_no_click,None,vor,,,,,OA07,001,no,1500,2000,145,274,321,2024-08-29_12h35.36.112,EXNAT_3_fMRI_Psychopy2023.1.3,2023.1.3,59.95674393006983,
0,0,0,0,,,,,,,,,,,#F989A2,660.0926899909973,97.09340500831604,None,None,None,813.3684973029445,text_01,106,1,1,1,Reading_Baseline_main_no_click,None,Chile,,,,,OA07,001,no,1500,2000,145,274,321,2024-08-29_12h35.36.112,EXNAT_3_fMRI_Psychopy2023.1.3,2023.1.3,59.95674393006983,
0,0,0,0,,,,,,,,,,,#D292F3,660.9093730449677,97.91008806228638,None,None,None,913.8748384841367,text_01,107,1,1,1,Reading_Baseline_main_no_click,None,gesichtet.,,,,,OA07,001,no,1500,2000,145,274,321,2024-08-29_12h35.36.112,EXNAT_3_fMRI_Psychopy2023.1.3,2023.1.3,59.95674393006983,
0,0,0,0,,,,,,,,,,,#2AB7EF,661.8259570598602,98.82667207717896,None,None,None,839.8051230380679,text_01,108,1,1,1,Reading_Baseline_main_no_click,None,Später,,,,,OA07,001,no,1500,2000,145,274,321,2024-08-29_12h35.36.112,EXNAT_3_fMRI_Psychopy2023.1.3,2023.1.3,59.95674393006983,
0,0,0,0,,,,,,,,,,,#F989A2,662.6760540008545,99.67676901817322,None,None,None,839.8051230380679,text_01,109,1,1,1,Reading_Baseline_main_no_click,None,wurden,,,,,OA07,001,no,1500,2000,145,274,321,2024-08-29_12h35.36.112,EXNAT_3_fMRI_Psychopy2023.1.3,2023.1.3,59.95674393006983,
0,0,0,0,,,,,,,,,,,#D292F3,663.5255720615387,100.52628707885742,None,None,None,781.0126823623841,text_01,110,1,1,1,Reading_Baseline_main_no_click,None,dann,,,,,OA07,001,no,1500,2000,145,274,321,2024-08-29_12h35.36.112,EXNAT_3_fMRI_Psychopy2023.1.3,2023.1.3,59.95674393006983,
0,0,0,0,,,,,,,,,,,#F989A2,664.308974981308,101.30968999862671,None,None,None,862.1569716130205,text_01,111,1,1,1,Reading_Baseline_main_no_click,None,weitere,,,,,OA07,001,no,1500,2000,145,274,321,2024-08-29_12h35.36.112,EXNAT_3_fMRI_Psychopy2023.1.3,2023.1.3,59.95674393006983,
0,0,0,0,,,,,,,,,,,#88BA3F,665.1756300926208,102.17634510993958,None,None,None,862.1569716130205,text_01,112,1,1,1,Reading_Baseline_main_no_click,None,Kalmare,,,,,OA07,001,no,1500,2000,145,274,321,2024-08-29_12h35.36.112,EXNAT_3_fMRI_Psychopy2023.1.3,2023.1.3,59.95674393006983,
0,0,0,0,,,,,,,,,,,#2AB7EF,666.0419361591339,103.04265117645264,None,None,None,725.0,text_01,113,1,1,1,Reading_Baseline_main_no_click,None,an,,,,,OA07,001,no,1500,2000,145,274,321,2024-08-29_12h35.36.112,EXNAT_3_fMRI_Psychopy2023.1.3,2023.1.3,59.95674393006983,
0,0,0,0,,,,,,,,,,,#88BA3F,666.7754271030426,103.77614212036133,None,None,None,862.1569716130205,text_01,114,1,1,1,Reading_Baseline_main_no_click,None,anderen,,,,,OA07,001,no,1500,2000,145,274,321,2024-08-29_12h35.36.112,EXNAT_3_fMRI_Psychopy2023.1.3,2023.1.3,59.95674393006983,
0,0,0,0,,,,,,,,,,,#F989A2,667.6420149803162,104.64272999763489,None,None,None,813.3684973029445,text_01,115,1,1,1,Reading_Baseline_main_no_click,None,Orten,,,,,OA07,001,no,1500,2000,145,274,321,2024-08-29_12h35.36.112,EXNAT_3_fMRI_Psychopy2023.1.3,2023.1.3,59.95674393006983,
0,0,0,0,,,,,,,,,,,#88BA3F,668.458573102951,105.45928812026978,None,None,None,862.1569716130205,text_01,116,1,1,1,Reading_Baseline_main_no_click,None,entlang,,,,,OA07,001,no,1500,2000,145,274,321,2024-08-29_12h35.36.112,EXNAT_3_fMRI_Psychopy2023.1.3,2023.1.3,59.95674393006983,
0,0,0,0,,,,,,,,,,,#2AB7EF,669.3249650001526,106.32568001747131,None,None,None,739.2987818568758,text_01,117,1,1,1,Reading_Baseline_main_no_click,None,der,,,,,OA07,001,no,1500,2000,145,274,321,2024-08-29_12h35.36.112,EXNAT_3_fMRI_Psychopy2023.1.3,2023.1.3,59.95674393006983,
0,0,0,0,,,,,,,,,,,#D292F3,670.0753331184387,107.07604813575745,None,None,None,813.3684973029445,text_01,118,1,1,1,Reading_Baseline_main_no_click,None,Küste,,,,,OA07,001,no,1500,2000,145,274,321,2024-08-29_12h35.36.112,EXNAT_3_fMRI_Psychopy2023.1.3,2023.1.3,59.95674393006983,
0,0,0,0,,,,,,,,,,,#D292F3,670.8916971683502,107.89241218566895,None,None,None,839.8051230380679,text_01,119,1,1,1,Reading_Baseline_main_no_click,None,Chiles,,,,,OA07,001,no,1500,2000,145,274,321,2024-08-29_12h35.36.112,EXNAT_3_fMRI_Psychopy2023.1.3,2023.1.3,59.95674393006983,
0,0,0,0,,,,,,,,,,,#2AB7EF,671.7417180538177,108.74243307113647,None,None,None,927.6948145557637,text_01,120,1,1,1,Reading_Baseline_main_no_click,None,beobachtet.,,,,,OA07,001,no,1500,2000,145,274,321,2024-08-29_12h35.36.112,EXNAT_3_fMRI_Psychopy2023.1.3,2023.1.3,59.95674393006983,
0,0,0,0,,,,,,,,,,,#2AB7EF,672.6746881008148,109.67540311813354,None,None,None,739.2987818568758,text_01,121,1,1,1,Reading_Baseline_main_no_click,None,Vor,,,,,OA07,001,no,1500,2000,145,274,321,2024-08-29_12h35.36.112,EXNAT_3_fMRI_Psychopy2023.1.3,2023.1.3,59.95674393006983,
0,0,0,0,,,,,,,,,,,#88BA3F,673.4247841835022,110.42549920082092,None,None,None,813.3684973029445,text_01,122,1,1,1,Reading_Baseline_main_no_click,None,allem,,,,,OA07,001,no,1500,2000,145,274,321,2024-08-29_12h35.36.112,EXNAT_3_fMRI_Psychopy2023.1.3,2023.1.3,59.95674393006983,
0,0,0,0,,,,,,,,,,,#F989A2,674.2412130832672,111.24192810058594,None,None,None,739.2987818568758,text_01,123,1,1,1,Reading_Baseline_main_no_click,None,für,,,,,OA07,001,no,1500,2000,145,274,321,2024-08-29_12h35.36.112,EXNAT_3_fMRI_Psychopy2023.1.3,2023.1.3,59.95674393006983,
0,0,0,0,,,,,,,,,,,#2AB7EF,674.9910881519318,111.99180316925049,None,None,None,739.2987818568758,text_01,124,1,1,1,Reading_Baseline_main_no_click,None,die,,,,,OA07,001,no,1500,2000,145,274,321,2024-08-29_12h35.36.112,EXNAT_3_fMRI_Psychopy2023.1.3,2023.1.3,59.95674393006983,
0,0,0,0,,,,,,,,,,,#D292F3,675.741170167923,112.7418851852417,None,None,None,862.1569716130205,text_01,125,1,1,1,Reading_Baseline_main_no_click,None,Fischer,,,,,OA07,001,no,1500,2000,145,274,321,2024-08-29_12h35.36.112,EXNAT_3_fMRI_Psychopy2023.1.3,2023.1.3,59.95674393006983,
0,0,0,0,,,,,,,,,,,#D292F3,676.6075830459595,113.6082980632782,None,None,None,739.2987818568758,text_01,126,1,1,1,Reading_Baseline_main_no_click,None,ist,,,,,OA07,001,no,1500,2000,145,274,321,2024-08-29_12h35.36.112,EXNAT_3_fMRI_Psychopy2023.1.3,2023.1.3,59.95674393006983,
0,0,0,0,,,,,,,,,,,#88BA3F,677.3575251102448,114.35824012756348,None,None,None,739.2987818568758,text_01,127,1,1,1,Reading_Baseline_main_no_click,None,das,,,,,OA07,001,no,1500,2000,145,274,321,2024-08-29_12h35.36.112,EXNAT_3_fMRI_Psychopy2023.1.3,2023.1.3,59.95674393006983,
0,0,0,0,,,,,,,,,,,#D292F3,678.1078879833221,115.10860300064087,None,None,None,913.8748384841367,text_01,128,1,1,1,Reading_Baseline_main_no_click,None,ärgerlich.,,,,,OA07,001,no,1500,2000,145,274,321,2024-08-29_12h35.36.112,EXNAT_3_fMRI_Psychopy2023.1.3,2023.1.3,59.95674393006983,
0,0,0,0,,,,,,,,,,,#2AB7EF,679.0244941711426,116.0252091884613,None,None,None,739.2987818568758,text_01,129,1,1,1,Reading_Baseline_main_no_click,None,Die,,,,,OA07,001,no,1500,2000,145,274,321,2024-08-29_12h35.36.112,EXNAT_3_fMRI_Psychopy2023.1.3,2023.1.3,59.95674393006983,
0,0,0,0,,,,,,,,,,,#F989A2,679.7741529941559,116.77486801147461,None,None,None,862.1569716130205,text_01,130,1,1,1,Reading_Baseline_main_no_click,None,Kalmare,,,,,OA07,001,no,1500,2000,145,274,321,2024-08-29_12h35.36.112,EXNAT_3_fMRI_Psychopy2023.1.3,2023.1.3,59.95674393006983,
0,0,0,0,,,,,,,,,,,#88BA3F,680.6407270431519,117.64144206047058,None,None,None,862.1569716130205,text_01,131,1,1,1,Reading_Baseline_main_no_click,None,fressen,,,,,OA07,001,no,1500,2000,145,274,321,2024-08-29_12h35.36.112,EXNAT_3_fMRI_Psychopy2023.1.3,2023.1.3,59.95674393006983,
0,0,0,0,,,,,,,,,,,#D292F3,681.5073640346527,118.50807905197144,None,None,None,862.1569716130205,text_01,132,1,1,1,Reading_Baseline_main_no_click,None,"Hechte,",,,,,OA07,001,no,1500,2000,145,274,321,2024-08-29_12h35.36.112,EXNAT_3_fMRI_Psychopy2023.1.3,2023.1.3,59.95674393006983,
0,0,0,0,,,,,,,,,,,#F989A2,682.3739950656891,119.37471008300781,None,None,None,881.5190235435762,text_01,133,1,1,1,Reading_Baseline_main_no_click,None,Sardinen,,,,,OA07,001,no,1500,2000,145,274,321,2024-08-29_12h35.36.112,EXNAT_3_fMRI_Psychopy2023.1.3,2023.1.3,59.95674393006983,
0,0,0,0,,,,,,,,,,,#D292F3,683.2737109661102,120.27442598342896,None,None,None,739.2987818568758,text_01,134,1,1,1,Reading_Baseline_main_no_click,None,und,,,,,OA07,001,no,1500,2000,145,274,321,2024-08-29_12h35.36.112,EXNAT_3_fMRI_Psychopy2023.1.3,2023.1.3,59.95674393006983,
0,0,0,0,,,,,,,,,,,#2AB7EF,684.0238630771637,121.02457809448242,None,None,None,913.8748384841367,text_01,135,1,1,1,Reading_Baseline_main_no_click,None,Sardellen.,,,,,OA07,001,no,1500,2000,145,274,321,2024-08-29_12h35.36.112,EXNAT_3_fMRI_Psychopy2023.1.3,2023.1.3,59.95674393006983,
0,0,0,0,,,,,,,,,,,#F989A2,684.9405291080475,121.94124412536621,None,None,None,739.2987818568758,text_01,136,1,1,1,Reading_Baseline_main_no_click,None,Und,,,,,OA07,001,no,1500,2000,145,274,321,2024-08-29_12h35.36.112,EXNAT_3_fMRI_Psychopy2023.1.3,2023.1.3,59.95674393006983,
0,0,0,0,,,,,,,,,,,#F989A2,685.6902651786804,122.69098019599915,None,None,None,739.2987818568758,text_01,137,1,1,1,Reading_Baseline_main_no_click,None,sie,,,,,OA07,001,no,1500,2000,145,274,321,2024-08-29_12h35.36.112,EXNAT_3_fMRI_Psychopy2023.1.3,2023.1.3,59.95674393006983,
0,0,0,0,,,,,,,,,,,#88BA3F,686.4401299953461,123.4408450126648,None,None,None,813.3684973029445,text_01,138,1,1,1,Reading_Baseline_main_no_click,None,haben,,,,,OA07,001,no,1500,2000,145,274,321,2024-08-29_12h35.36.112,EXNAT_3_fMRI_Psychopy2023.1.3,2023.1.3,59.95674393006983,
0,0,0,0,,,,,,,,,,,#2AB7EF,687.256872177124,124.25758719444275,None,None,None,839.8051230380679,text_01,139,1,1,1,Reading_Baseline_main_no_click,None,großen,,,,,OA07,001,no,1500,2000,145,274,321,2024-08-29_12h35.36.112,EXNAT_3_fMRI_Psychopy2023.1.3,2023.1.3,59.95674393006983,
0,0,0,0,,,,,,,,,,,#88BA3F,688.1072120666504,125.10792708396912,None,None,None,881.5190235435762,text_01,140,1,1,1,Reading_Baseline_main_no_click,None,Hunger -,,,,,OA07,001,no,1500,2000,145,274,321,2024-08-29_12h35.36.112,EXNAT_3_fMRI_Psychopy2023.1.3,2023.1.3,59.95674393006983,
0,0,0,0,,,,,,,,,,,#D292F3,689.0068070888519,126.00752210617065,None,None,None,898.5975637137518,text_01,141,1,1,1,Reading_Baseline_main_no_click,None,schlechte,,,,,OA07,001,no,1500,2000,145,274,321,2024-08-29_12h35.36.112,EXNAT_3_fMRI_Psychopy2023.1.3,2023.1.3,59.95674393006983,
0,0,0,0,,,,,,,,,,,#88BA3F,689.9231929779053,126.923907995224,None,None,None,839.8051230380679,text_01,142,1,1,1,Reading_Baseline_main_no_click,None,Karten,,,,,OA07,001,no,1500,2000,145,274,321,2024-08-29_12h35.36.112,EXNAT_3_fMRI_Psychopy2023.1.3,2023.1.3,59.95674393006983,
0,0,0,0,,,,,,,,,,,#2AB7EF,690.7729599475861,127.77367496490479,None,None,None,739.2987818568758,text_01,143,1,1,1,Reading_Baseline_main_no_click,None,für,,,,,OA07,001,no,1500,2000,145,274,321,2024-08-29_12h35.36.112,EXNAT_3_fMRI_Psychopy2023.1.3,2023.1.3,59.95674393006983,
0,0,0,0,,,,,,,,,,,#D292F3,691.5228810310364,128.5235960483551,None,None,None,739.2987818568758,text_01,144,1,1,1,Reading_Baseline_main_no_click,None,die,,,,,OA07,001,no,1500,2000,145,274,321,2024-08-29_12h35.36.112,EXNAT_3_fMRI_Psychopy2023.1.3,2023.1.3,59.95674393006983,
0,0,0,0,,,,,,,,,,,#2AB7EF,692.2730400562286,129.27375507354736,None,None,None,898.5975637137518,text_01,145,1,1,1,Reading_Baseline_main_no_click,None,kleineren,,,,,OA07,001,no,1500,2000,145,274,321,2024-08-29_12h35.36.112,EXNAT_3_fMRI_Psychopy2023.1.3,2023.1.3,59.95674393006983,
0,0,0,0,,,,,,,,,,,#F989A2,693.1898880004883,130.190603017807,None,None,None,862.1569716130205,text_01,146,1,1,1,Reading_Baseline_main_no_click,None,Fische.,,,,,OA07,001,no,1500,2000,145,274,321,2024-08-29_12h35.36.112,EXNAT_3_fMRI_Psychopy2023.1.3,2023.1.3,59.95674393006983,
0,0,0,0,,,,,,,,,,,#2AB7EF,694.0559961795807,131.0567111968994,None,None,None,739.2987818568758,text_01,147,1,1,1,Reading_Baseline_main_no_click,None,Die,,,,,OA07,001,no,1500,2000,145,274,321,2024-08-29_12h35.36.112,EXNAT_3_fMRI_Psychopy2023.1.3,2023.1.3,59.95674393006983,
0,0,0,0,,,,,,,,,,,#88BA3F,694.8061561584473,131.806871175766,None,None,None,862.1569716130205,text_01,148,1,1,1,Reading_Baseline_main_no_click,None,Kalmare,,,,,OA07,001,no,1500,2000,145,274,321,2024-08-29_12h35.36.112,EXNAT_3_fMRI_Psychopy2023.1.3,2023.1.3,59.95674393006983,
0,0,0,0,,,,,,,,,,,#F989A2,695.6727249622345,132.67343997955322,None,None,None,839.8051230380679,text_01,149,1,1,1,Reading_Baseline_main_no_click,None,selbst,,,,,OA07,001,no,1500,2000,145,274,321,2024-08-29_12h35.36.112,EXNAT_3_fMRI_Psychopy2023.1.3,2023.1.3,59.95674393006983,
0,0,0,0,,,,,,,,,,,#88BA3F,696.5226140022278,133.5233290195465,None,None,None,813.3684973029445,text_01,150,1,1,1,Reading_Baseline_main_no_click,None,haben,,,,,OA07,001,no,1500,2000,145,274,321,2024-08-29_12h35.36.112,EXNAT_3_fMRI_Psychopy2023.1.3,2023.1.3,59.95674393006983,
0,0,0,0,,,,,,,,,,,#D292F3,697.3392751216888,134.33999013900757,None,None,None,881.5190235435762,text_01,151,1,1,1,Reading_Baseline_main_no_click,None,hingegen,,,,,OA07,001,no,1500,2000,145,274,321,2024-08-29_12h35.36.112,EXNAT_3_fMRI_Psychopy2023.1.3,2023.1.3,59.95674393006983,
0,0,0,0,,,,,,,,,,,#F989A2,698.239511013031,135.24022603034973,None,None,None,839.8051230380679,text_01,152,1,1,1,Reading_Baseline_main_no_click,None,Glück:,,,,,OA07,001,no,1500,2000,145,274,321,2024-08-29_12h35.36.112,EXNAT_3_fMRI_Psychopy2023.1.3,2023.1.3,59.95674393006983,
0,0,0,0,,,,,,,,,,,#D292F3,699.0888810157776,136.0895960330963,None,None,None,739.2987818568758,text_01,153,1,1,1,Reading_Baseline_main_no_click,None,Sie,,,,,OA07,001,no,1500,2000,145,274,321,2024-08-29_12h35.36.112,EXNAT_3_fMRI_Psychopy2023.1.3,2023.1.3,59.95674393006983,
0,0,0,0,,,,,,,,,,,#2AB7EF,699.8390181064606,136.8397331237793,None,None,None,839.8051230380679,text_01,154,1,1,1,Reading_Baseline_main_no_click,None,gelten,,,,,OA07,001,no,1500,2000,145,274,321,2024-08-29_12h35.36.112,EXNAT_3_fMRI_Psychopy2023.1.3,2023.1.3,59.95674393006983,
0,0,0,0,,,,,,,,,,,#88BA3F,700.6890120506287,137.6897270679474,None,None,None,781.0126823623841,text_01,155,1,1,1,Reading_Baseline_main_no_click,None,zwar,,,,,OA07,001,no,1500,2000,145,274,321,2024-08-29_12h35.36.112,EXNAT_3_fMRI_Psychopy2023.1.3,2023.1.3,59.95674393006983,
0,0,0,0,,,,,,,,,,,#D292F3,701.4721021652222,138.4728171825409,None,None,None,725.0,text_01,156,1,1,1,Reading_Baseline_main_no_click,None,in,,,,,OA07,001,no,1500,2000,145,274,321,2024-08-29_12h35.36.112,EXNAT_3_fMRI_Psychopy2023.1.3,2023.1.3,59.95674393006983,
0,0,0,0,,,,,,,,,,,#88BA3F,702.205589056015,139.20630407333374,None,None,None,862.1569716130205,text_01,157,1,1,1,Reading_Baseline_main_no_click,None,manchen,,,,,OA07,001,no,1500,2000,145,274,321,2024-08-29_12h35.36.112,EXNAT_3_fMRI_Psychopy2023.1.3,2023.1.3,59.95674393006983,
0,0,0,0,,,,,,,,,,,#2AB7EF,703.0725691318512,140.07328414916992,None,None,None,862.1569716130205,text_01,158,1,1,1,Reading_Baseline_main_no_click,None,Ländern,,,,,OA07,001,no,1500,2000,145,274,321,2024-08-29_12h35.36.112,EXNAT_3_fMRI_Psychopy2023.1.3,2023.1.3,59.95674393006983,
0,0,0,0,,,,,,,,,,,#F989A2,703.938560962677,140.93927597999573,None,None,None,739.2987818568758,text_01,159,1,1,1,Reading_Baseline_main_no_click,None,als,,,,,OA07,001,no,1500,2000,145,274,321,2024-08-29_12h35.36.112,EXNAT_3_fMRI_Psychopy2023.1.3,2023.1.3,59.95674393006983,
0,0,0,0,,,,,,,,,,,#2AB7EF,704.6887860298157,141.6895010471344,None,None,None,940.3114642192601,text_01,160,1,1,1,Reading_Baseline_main_no_click,None,"Delikatesse,",,,,,OA07,001,no,1500,2000,145,274,321,2024-08-29_12h35.36.112,EXNAT_3_fMRI_Psychopy2023.1.3,2023.1.3,59.95674393006983,
0,0,0,0,,,,,,,,,,,#D292F3,705.6386411190033,142.63935613632202,None,None,None,839.8051230380679,text_01,161,1,1,1,Reading_Baseline_main_no_click,None,werden,,,,,OA07,001,no,1500,2000,145,274,321,2024-08-29_12h35.36.112,EXNAT_3_fMRI_Psychopy2023.1.3,2023.1.3,59.95674393006983,
0,0,0,0,,,,,,,,,,,#F989A2,706.4883320331573,143.48904705047607,None,None,None,725.0,text_01,162,1,1,1,Reading_Baseline_main_no_click,None,in,,,,,OA07,001,no,1500,2000,145,274,321,2024-08-29_12h35.36.112,EXNAT_3_fMRI_Psychopy2023.1.3,2023.1.3,59.95674393006983,
0,0,0,0,,,,,,,,,,,#F989A2,707.2217881679535,144.22250318527222,None,None,None,813.3684973029445,text_01,163,1,1,1,Reading_Baseline_main_no_click,None,Chile,,,,,OA07,001,no,1500,2000,145,274,321,2024-08-29_12h35.36.112,EXNAT_3_fMRI_Psychopy2023.1.3,2023.1.3,59.95674393006983,
0,0,0,0,,,,,,,,,,,#2AB7EF,708.0386459827423,145.03936100006104,None,None,None,839.8051230380679,text_01,164,1,1,1,Reading_Baseline_main_no_click,None,jedoch,,,,,OA07,001,no,1500,2000,145,274,321,2024-08-29_12h35.36.112,EXNAT_3_fMRI_Psychopy2023.1.3,2023.1.3,59.95674393006983,
0,0,0,0,,,,,,,,,,,#D292F3,708.8884751796722,145.88919019699097,None,None,None,813.3684973029445,text_01,165,1,1,1,Reading_Baseline_main_no_click,None,nicht,,,,,OA07,001,no,1500,2000,145,274,321,2024-08-29_12h35.36.112,EXNAT_3_fMRI_Psychopy2023.1.3,2023.1.3,59.95674393006983,
0,0,0,0,,,,,,,,,,,#F989A2,709.7049160003662,146.70563101768494,None,None,None,898.5975637137518,text_01,166,1,1,1,Reading_Baseline_main_no_click,None,gegessen.,,,,,OA07,001,no,1500,2000,145,274,321,2024-08-29_12h35.36.112,EXNAT_3_fMRI_Psychopy2023.1.3,2023.1.3,59.95674393006983,
0,0,0,0,,,,,,,,,,,#2AB7EF,710.6215920448303,147.62230706214905,None,None,None,962.6633127942125,text_01,167,1,1,1,Reading_Baseline_main_no_click,None,Meeresbiologen,,,,,OA07,001,no,1500,2000,145,274,321,2024-08-29_12h35.36.112,EXNAT_3_fMRI_Psychopy2023.1.3,2023.1.3,59.95674393006983,
0,0,0,0,,,,,,,,,,,#2AB7EF,711.5880279541016,148.5887429714203,None,None,None,862.1569716130205,text_01,168,1,1,1,Reading_Baseline_main_no_click,None,standen,,,,,OA07,001,no,1500,2000,145,274,321,2024-08-29_12h35.36.112,EXNAT_3_fMRI_Psychopy2023.1.3,2023.1.3,59.95674393006983,
0,0,0,0,,,,,,,,,,,#88BA3F,712.4546060562134,149.4553210735321,None,None,None,813.3684973029445,text_01,169,1,1,1,Reading_Baseline_main_no_click,None,wegen,,,,,OA07,001,no,1500,2000,145,274,321,2024-08-29_12h35.36.112,EXNAT_3_fMRI_Psychopy2023.1.3,2023.1.3,59.95674393006983,
0,0,0,0,,,,,,,,,,,#88BA3F,713.271005153656,150.27172017097473,None,None,None,739.2987818568758,text_01,170,1,1,1,Reading_Baseline_main_no_click,None,des,,,,,OA07,001,no,1500,2000,145,274,321,2024-08-29_12h35.36.112,EXNAT_3_fMRI_Psychopy2023.1.3,2023.1.3,59.95674393006983,
0,0,0,0,,,,,,,,,,,#D292F3,714.021623134613,151.02233815193176,None,None,None,927.6948145557637,text_01,171,1,1,1,Reading_Baseline_main_no_click,None,plötzlichen,,,,,OA07,001,no,1500,2000,145,274,321,2024-08-29_12h35.36.112,EXNAT_3_fMRI_Psychopy2023.1.3,2023.1.3,59.95674393006983,
0,0,0,0,,,,,,,,,,,#F989A2,714.9554030895233,151.95611810684204,None,None,None,927.6948145557637,text_01,172,1,1,1,Reading_Baseline_main_no_click,None,Erscheinens,,,,,OA07,001,no,1500,2000,145,274,321,2024-08-29_12h35.36.112,EXNAT_3_fMRI_Psychopy2023.1.3,2023.1.3,59.95674393006983,
0,0,0,0,,,,,,,,,,,#2AB7EF,715.8874809741974,152.8881959915161,None,None,None,739.2987818568758,text_01,173,1,1,1,Reading_Baseline_main_no_click,None,der,,,,,OA07,001,no,1500,2000,145,274,321,2024-08-29_12h35.36.112,EXNAT_3_fMRI_Psychopy2023.1.3,2023.1.3,59.95674393006983,
0,0,0,0,,,,,,,,,,,#88BA3F,716.6375319957733,153.63824701309204,None,None,None,862.1569716130205,text_01,174,1,1,1,Reading_Baseline_main_no_click,None,Kalmare,,,,,OA07,001,no,1500,2000,145,274,321,2024-08-29_12h35.36.112,EXNAT_3_fMRI_Psychopy2023.1.3,2023.1.3,59.95674393006983,
0,0,0,0,,,,,,,,,,,#F989A2,717.5043721199036,154.5050871372223,None,None,None,881.5190235435762,text_01,175,1,1,1,Reading_Baseline_main_no_click,None,zunächst,,,,,OA07,001,no,1500,2000,145,274,321,2024-08-29_12h35.36.112,EXNAT_3_fMRI_Psychopy2023.1.3,2023.1.3,59.95674393006983,
0,0,0,0,,,,,,,,,,,#2AB7EF,718.4040629863739,155.40477800369263,None,None,None,739.2987818568758,text_01,176,1,1,1,Reading_Baseline_main_no_click,None,vor,,,,,OA07,001,no,1500,2000,145,274,321,2024-08-29_12h35.36.112,EXNAT_3_fMRI_Psychopy2023.1.3,2023.1.3,59.95674393006983,
0,0,0,0,,,,,,,,,,,#F989A2,719.154149055481,156.15486407279968,None,None,None,813.3684973029445,text_01,177,1,1,1,Reading_Baseline_main_no_click,None,einem,,,,,OA07,001,no,1500,2000,145,274,321,2024-08-29_12h35.36.112,EXNAT_3_fMRI_Psychopy2023.1.3,2023.1.3,59.95674393006983,
0,0,0,0,,,,,,,,,,,#D292F3,719.9705891609192,156.97130417823792,None,None,None,839.8051230380679,text_01,178,1,1,1,Reading_Baseline_main_no_click,None,großen,,,,,OA07,001,no,1500,2000,145,274,321,2024-08-29_12h35.36.112,EXNAT_3_fMRI_Psychopy2023.1.3,2023.1.3,59.95674393006983,
0,0,0,0,,,,,,,,,,,#2AB7EF,720.821161031723,157.82187604904175,None,None,None,862.1569716130205,text_01,179,1,1,1,Reading_Baseline_main_no_click,None,Rätsel.,,,,,OA07,001,no,1500,2000,145,274,321,2024-08-29_12h35.36.112,EXNAT_3_fMRI_Psychopy2023.1.3,2023.1.3,59.95674393006983,
0,0,0,0,,,,,,,,,,,#D292F3,721.6869661808014,158.68768119812012,None,None,None,739.2987818568758,text_01,180,1,1,1,Reading_Baseline_main_no_click,None,Nun,,,,,OA07,001,no,1500,2000,145,274,321,2024-08-29_12h35.36.112,EXNAT_3_fMRI_Psychopy2023.1.3,2023.1.3,59.95674393006983,
0,0,0,0,,,,,,,,,,,#2AB7EF,722.4370980262756,159.43781304359436,None,None,None,739.2987818568758,text_01,181,1,1,1,Reading_Baseline_main_no_click,None,ist,,,,,OA07,001,no,1500,2000,145,274,321,2024-08-29_12h35.36.112,EXNAT_3_fMRI_Psychopy2023.1.3,2023.1.3,59.95674393006983,
0,0,0,0,,,,,,,,,,,#F989A2,723.1869549751282,160.1876699924469,None,None,None,839.8051230380679,text_01,182,1,1,1,Reading_Baseline_main_no_click,None,jedoch,,,,,OA07,001,no,1500,2000,145,274,321,2024-08-29_12h35.36.112,EXNAT_3_fMRI_Psychopy2023.1.3,2023.1.3,59.95674393006983,
0,0,0,0,,,,,,,,,,,#F989A2,724.0369501113892,161.03766512870789,None,None,None,813.3684973029445,text_01,183,1,1,1,Reading_Baseline_main_no_click,None,"klar,",,,,,OA07,001,no,1500,2000,145,274,321,2024-08-29_12h35.36.112,EXNAT_3_fMRI_Psychopy2023.1.3,2023.1.3,59.95674393006983,
0,0,0,0,,,,,,,,,,,#D292F3,724.8535089492798,161.8542239665985,None,None,None,862.1569716130205,text_01,184,1,1,1,Reading_Baseline_main_no_click,None,weshalb,,,,,OA07,001,no,1500,2000,145,274,321,2024-08-29_12h35.36.112,EXNAT_3_fMRI_Psychopy2023.1.3,2023.1.3,59.95674393006983,
0,0,0,0,,,,,,,,,,,#2AB7EF,725.7199580669403,162.72067308425903,None,None,None,739.2987818568758,text_01,185,1,1,1,Reading_Baseline_main_no_click,None,die,,,,,OA07,001,no,1500,2000,145,274,321,2024-08-29_12h35.36.112,EXNAT_3_fMRI_Psychopy2023.1.3,2023.1.3,59.95674393006983,
0,0,0,0,,,,,,,,,,,#D292F3,726.4701240062714,163.4708390235901,None,None,None,862.1569716130205,text_01,186,1,1,1,Reading_Baseline_main_no_click,None,Kalmare,,,,,OA07,001,no,1500,2000,145,274,321,2024-08-29_12h35.36.112,EXNAT_3_fMRI_Psychopy2023.1.3,2023.1.3,59.95674393006983,
0,0,0,0,,,,,,,,,,,#F989A2,727.3366420269012,164.33735704421997,None,None,None,898.5975637137518,text_01,187,1,1,1,Reading_Baseline_main_no_click,None,plötzlich,,,,,OA07,001,no,1500,2000,145,274,321,2024-08-29_12h35.36.112,EXNAT_3_fMRI_Psychopy2023.1.3,2023.1.3,59.95674393006983,
0,0,0,0,,,,,,,,,,,#88BA3F,728.2535049915314,165.2542200088501,None,None,None,940.3114642192601,text_01,188,1,1,1,Reading_Baseline_main_no_click,None,auftauchten.,,,,,OA07,001,no,1500,2000,145,274,321,2024-08-29_12h35.36.112,EXNAT_3_fMRI_Psychopy2023.1.3,2023.1.3,59.95674393006983,
0,0,0,0,,,,,,,,,,,#D292F3,729.2029540538788,166.2036690711975,None,None,None,725.0,text_01,189,1,1,1,Reading_Baseline_main_no_click,None,Im,,,,,OA07,001,no,1500,2000,145,274,321,2024-08-29_12h35.36.112,EXNAT_3_fMRI_Psychopy2023.1.3,2023.1.3,59.95674393006983,
0,0,0,0,,,,,,,,,,,#2AB7EF,729.9367029666901,166.9374179840088,None,None,None,862.1569716130205,text_01,190,1,1,1,Reading_Baseline_main_no_click,None,Februar,,,,,OA07,001,no,1500,2000,145,274,321,2024-08-29_12h35.36.112,EXNAT_3_fMRI_Psychopy2023.1.3,2023.1.3,59.95674393006983,
0,0,0,0,,,,,,,,,,,#D292F3,730.8029971122742,167.8037121295929,None,None,None,881.5190235435762,text_01,191,1,1,1,Reading_Baseline_main_no_click,None,erwärmte,,,,,OA07,001,no,1500,2000,145,274,321,2024-08-29_12h35.36.112,EXNAT_3_fMRI_Psychopy2023.1.3,2023.1.3,59.95674393006983,
0,0,0,0,,,,,,,,,,,#88BA3F,731.7027840614319,168.7034990787506,None,None,None,781.0126823623841,text_01,192,1,1,1,Reading_Baseline_main_no_click,None,sich,,,,,OA07,001,no,1500,2000,145,274,321,2024-08-29_12h35.36.112,EXNAT_3_fMRI_Psychopy2023.1.3,2023.1.3,59.95674393006983,
0,0,0,0,,,,,,,,,,,#D292F3,732.4860270023346,169.48674201965332,None,None,None,739.2987818568758,text_01,193,1,1,1,Reading_Baseline_main_no_click,None,das,,,,,OA07,001,no,1500,2000,145,274,321,2024-08-29_12h35.36.112,EXNAT_3_fMRI_Psychopy2023.1.3,2023.1.3,59.95674393006983,
0,0,0,0,,,,,,,,,,,#F989A2,733.2359621524811,170.2366771697998,None,None,None,781.0126823623841,text_01,194,1,1,1,Reading_Baseline_main_no_click,None,Meer,,,,,OA07,001,no,1500,2000,145,274,321,2024-08-29_12h35.36.112,EXNAT_3_fMRI_Psychopy2023.1.3,2023.1.3,59.95674393006983,
0,0,0,0,,,,,,,,,,,#2AB7EF,734.0195031166077,171.0202181339264,None,None,None,913.8748384841367,text_01,195,1,1,1,Reading_Baseline_main_no_click,None,verglichen,,,,,OA07,001,no,1500,2000,145,274,321,2024-08-29_12h35.36.112,EXNAT_3_fMRI_Psychopy2023.1.3,2023.1.3,59.95674393006983,
0,0,0,0,,,,,,,,,,,#D292F3,734.9358069896698,171.93652200698853,None,None,None,739.2987818568758,text_01,196,1,1,1,Reading_Baseline_main_no_click,None,mit,,,,,OA07,001,no,1500,2000,145,274,321,2024-08-29_12h35.36.112,EXNAT_3_fMRI_Psychopy2023.1.3,2023.1.3,59.95674393006983,
0,0,0,0,,,,,,,,,,,#F989A2,735.6857261657715,172.6864411830902,None,None,None,739.2987818568758,text_01,197,1,1,1,Reading_Baseline_main_no_click,None,den,,,,,OA07,001,no,1500,2000,145,274,321,2024-08-29_12h35.36.112,EXNAT_3_fMRI_Psychopy2023.1.3,2023.1.3,59.95674393006983,
0,0,0,0,,,,,,,,,,,#D292F3,736.4359459877014,173.43666100502014,None,None,None,940.3114642192601,text_01,198,1,1,1,Reading_Baseline_main_no_click,None,Temperaturen,,,,,OA07,001,no,1500,2000,145,274,321,2024-08-29_12h35.36.112,EXNAT_3_fMRI_Psychopy2023.1.3,2023.1.3,59.95674393006983,
0,0,0,0,,,,,,,,,,,#88BA3F,737.3856520652771,174.38636708259583,None,None,None,725.0,text_01,199,1,1,1,Reading_Baseline_main_no_click,None,in,,,,,OA07,001,no,1500,2000,145,274,321,2024-08-29_12h35.36.112,EXNAT_3_fMRI_Psychopy2023.1.3,2023.1.3,59.95674393006983,
0,0,0,0,,,,,,,,,,,#F989A2,738.1190700531006,175.1197850704193,None,None,None,739.2987818568758,text_01,200,1,1,1,Reading_Baseline_main_no_click,None,den,,,,,OA07,001,no,1500,2000,145,274,321,2024-08-29_12h35.36.112,EXNAT_3_fMRI_Psychopy2023.1.3,2023.1.3,59.95674393006983,
0,0,0,0,,,,,,,,,,,#88BA3F,738.8690400123596,175.86975502967834,None,None,None,898.5975637137518,text_01,201,1,1,1,Reading_Baseline_main_no_click,None,Vorjahren,,,,,OA07,001,no,1500,2000,145,274,321,2024-08-29_12h35.36.112,EXNAT_3_fMRI_Psychopy2023.1.3,2023.1.3,59.95674393006983,
0,0,0,0,,,,,,,,,,,#2AB7EF,739.7856731414795,176.78638815879822,None,None,None,940.3114642192601,text_01,202,1,1,1,Reading_Baseline_main_no_click,None,ungewöhnlich,,,,,OA07,001,no,1500,2000,145,274,321,2024-08-29_12h35.36.112,EXNAT_3_fMRI_Psychopy2023.1.3,2023.1.3,59.95674393006983,
0,0,0,0,,,,,,,,,,,#D292F3,740.7354669570923,177.736181974411,None,None,None,839.8051230380679,text_01,203,1,1,1,Reading_Baseline_main_no_click,None,stark.,,,,,OA07,001,no,1500,2000,145,274,321,2024-08-29_12h35.36.112,EXNAT_3_fMRI_Psychopy2023.1.3,2023.1.3,59.95674393006983,
0,0,0,0,,,,,,,,,,,#88BA3F,741.5853979587555,178.58611297607422,None,None,None,725.0,text_01,204,1,1,1,Reading_Baseline_main_no_click,None,Es,,,,,OA07,001,no,1500,2000,145,274,321,2024-08-29_12h35.36.112,EXNAT_3_fMRI_Psychopy2023.1.3,2023.1.3,59.95674393006983,
0,0,0,0,,,,,,,,,,,#D292F3,742.3186950683594,179.3194100856781,None,None,None,898.5975637137518,text_01,205,1,1,1,Reading_Baseline_main_no_click,None,sammelten,,,,,OA07,001,no,1500,2000,145,274,321,2024-08-29_12h35.36.112,EXNAT_3_fMRI_Psychopy2023.1.3,2023.1.3,59.95674393006983,
0,0,0,0,,,,,,,,,,,#2AB7EF,743.2350900173187,180.23580503463745,None,None,None,781.0126823623841,text_01,206,1,1,1,Reading_Baseline_main_no_click,None,sich,,,,,OA07,001,no,1500,2000,145,274,321,2024-08-29_12h35.36.112,EXNAT_3_fMRI_Psychopy2023.1.3,2023.1.3,59.95674393006983,
0,0,0,0,,,,,,,,,,,#88BA3F,744.0184881687164,181.01920318603516,None,None,None,813.3684973029445,text_01,207,1,1,1,Reading_Baseline_main_no_click,None,viele,,,,,OA07,001,no,1500,2000,145,274,321,2024-08-29_12h35.36.112,EXNAT_3_fMRI_Psychopy2023.1.3,2023.1.3,59.95674393006983,
0,0,0,0,,,,,,,,,,,#2AB7EF,744.8352999687195,181.8360149860382,None,None,None,839.8051230380679,text_01,208,1,1,1,Reading_Baseline_main_no_click,None,kleine,,,,,OA07,001,no,1500,2000,145,274,321,2024-08-29_12h35.36.112,EXNAT_3_fMRI_Psychopy2023.1.3,2023.1.3,59.95674393006983,
0,0,0,0,,,,,,,,,,,#F989A2,745.6851091384888,182.6858241558075,None,None,None,839.8051230380679,text_01,209,1,1,1,Reading_Baseline_main_no_click,None,Fische,,,,,OA07,001,no,1500,2000,145,274,321,2024-08-29_12h35.36.112,EXNAT_3_fMRI_Psychopy2023.1.3,2023.1.3,59.95674393006983,
0,0,0,0,,,,,,,,,,,#D292F3,746.5347919464111,183.53550696372986,None,None,None,739.2987818568758,text_01,210,1,1,1,Reading_Baseline_main_no_click,None,vor,,,,,OA07,001,no,1500,2000,145,274,321,2024-08-29_12h35.36.112,EXNAT_3_fMRI_Psychopy2023.1.3,2023.1.3,59.95674393006983,
0,0,0,0,,,,,,,,,,,#D292F3,747.284707069397,184.2854220867157,None,None,None,739.2987818568758,text_01,211,1,1,1,Reading_Baseline_main_no_click,None,der,,,,,OA07,001,no,1500,2000,145,274,321,2024-08-29_12h35.36.112,EXNAT_3_fMRI_Psychopy2023.1.3,2023.1.3,59.95674393006983,
0,0,0,0,,,,,,,,,,,#F989A2,748.0347671508789,185.03548216819763,None,None,None,839.8051230380679,text_01,212,1,1,1,Reading_Baseline_main_no_click,None,Küste.,,,,,OA07,001,no,1500,2000,145,274,321,2024-08-29_12h35.36.112,EXNAT_3_fMRI_Psychopy2023.1.3,2023.1.3,59.95674393006983,
0,0,0,0,,,,,,,,,,,#2AB7EF,748.8846340179443,185.88534903526306,None,None,None,739.2987818568758,text_01,213,1,1,1,Reading_Baseline_main_no_click,None,Die,,,,,OA07,001,no,1500,2000,145,274,321,2024-08-29_12h35.36.112,EXNAT_3_fMRI_Psychopy2023.1.3,2023.1.3,59.95674393006983,
0,0,0,0,,,,,,,,,,,#D292F3,749.6346609592438,186.6353759765625,None,None,None,862.1569716130205,text_01,214,1,1,1,Reading_Baseline_main_no_click,None,Kalmare,,,,,OA07,001,no,1500,2000,145,274,321,2024-08-29_12h35.36.112,EXNAT_3_fMRI_Psychopy2023.1.3,2023.1.3,59.95674393006983,
0,0,0,0,,,,,,,,,,,#F989A2,750.5012731552124,187.50198817253113,None,None,None,839.8051230380679,text_01,215,1,1,1,Reading_Baseline_main_no_click,None,wurden,,,,,OA07,001,no,1500,2000,145,274,321,2024-08-29_12h35.36.112,EXNAT_3_fMRI_Psychopy2023.1.3,2023.1.3,59.95674393006983,
0,0,0,0,,,,,,,,,,,#2AB7EF,751.3512091636658,188.3519241809845,None,None,None,862.1569716130205,text_01,216,1,1,1,Reading_Baseline_main_no_click,None,dadurch,,,,,OA07,001,no,1500,2000,145,274,321,2024-08-29_12h35.36.112,EXNAT_3_fMRI_Psychopy2023.1.3,2023.1.3,59.95674393006983,
0,0,0,0,,,,,,,,,,,#D292F3,752.2180061340332,189.21872115135193,None,None,None,862.1569716130205,text_01,217,1,1,1,Reading_Baseline_main_no_click,None,magisch,,,,,OA07,001,no,1500,2000,145,274,321,2024-08-29_12h35.36.112,EXNAT_3_fMRI_Psychopy2023.1.3,2023.1.3,59.95674393006983,
0,0,0,0,,,,,,,,,,,#2AB7EF,753.0845081806183,190.085223197937,None,None,None,913.8748384841367,text_01,218,1,1,1,Reading_Baseline_main_no_click,None,angezogen.,,,,,OA07,001,no,1500,2000,145,274,321,2024-08-29_12h35.36.112,EXNAT_3_fMRI_Psychopy2023.1.3,2023.1.3,59.95674393006983,
0,0,0,0,,,,,,,,,,,#88BA3F,754.0007891654968,191.00150418281555,None,None,None,739.2987818568758,text_01,219,1,1,1,Reading_Baseline_main_no_click,None,Die,,,,,OA07,001,no,1500,2000,145,274,321,2024-08-29_12h35.36.112,EXNAT_3_fMRI_Psychopy2023.1.3,2023.1.3,59.95674393006983,
0,0,0,0,,,,,,,,,,,#88BA3F,754.7508840560913,191.75159907341003,None,None,None,862.1569716130205,text_01,220,1,1,1,Reading_Baseline_main_no_click,None,kleinen,,,,,OA07,001,no,1500,2000,145,274,321,2024-08-29_12h35.36.112,EXNAT_3_fMRI_Psychopy2023.1.3,2023.1.3,59.95674393006983,
0,0,0,0,,,,,,,,,,,#2AB7EF,755.6175060272217,192.6182210445404,None,None,None,839.8051230380679,text_01,221,1,1,1,Reading_Baseline_main_no_click,None,Fische,,,,,OA07,001,no,1500,2000,145,274,321,2024-08-29_12h35.36.112,EXNAT_3_fMRI_Psychopy2023.1.3,2023.1.3,59.95674393006983,
0,0,0,0,,,,,,,,,,,#F989A2,756.4674310684204,193.46814608573914,None,None,None,881.5190235435762,text_01,222,1,1,1,Reading_Baseline_main_no_click,None,bedeuten,,,,,OA07,001,no,1500,2000,145,274,321,2024-08-29_12h35.36.112,EXNAT_3_fMRI_Psychopy2023.1.3,2023.1.3,59.95674393006983,
0,0,0,0,,,,,,,,,,,#D292F3,757.3671569824219,194.3678719997406,None,None,None,739.2987818568758,text_01,223,1,1,1,Reading_Baseline_main_no_click,None,für,,,,,OA07,001,no,1500,2000,145,274,321,2024-08-29_12h35.36.112,EXNAT_3_fMRI_Psychopy2023.1.3,2023.1.3,59.95674393006983,
0,0,0,0,,,,,,,,,,,#F989A2,758.1170990467072,195.11781406402588,None,None,None,739.2987818568758,text_01,224,1,1,1,Reading_Baseline_main_no_click,None,sie,,,,,OA07,001,no,1500,2000,145,274,321,2024-08-29_12h35.36.112,EXNAT_3_fMRI_Psychopy2023.1.3,2023.1.3,59.95674393006983,
0,0,0,0,,,,,,,,,,,#2AB7EF,758.8671729564667,195.8678879737854,None,None,None,839.8051230380679,text_01,225,1,1,1,Reading_Baseline_main_no_click,None,reiche,,,,,OA07,001,no,1500,2000,145,274,321,2024-08-29_12h35.36.112,EXNAT_3_fMRI_Psychopy2023.1.3,2023.1.3,59.95674393006983,
0,0,0,0,,,,,,,,,,,#F989A2,759.7173571586609,196.71807217597961,None,None,None,839.8051230380679,text_01,226,1,1,1,Reading_Baseline_main_no_click,None,Beute.,,,,,OA07,001,no,1500,2000,145,274,321,2024-08-29_12h35.36.112,EXNAT_3_fMRI_Psychopy2023.1.3,2023.1.3,59.95674393006983,
0,0,0,0,,,,,,,,,,,#88BA3F,760.5668890476227,197.5676040649414,None,None,None,739.2987818568758,text_01,227,1,1,1,Reading_Baseline_main_no_click,None,Für,,,,,OA07,001,no,1500,2000,145,274,321,2024-08-29_12h35.36.112,EXNAT_3_fMRI_Psychopy2023.1.3,2023.1.3,59.95674393006983,
0,0,0,0,,,,,,,,,,,#D292F3,761.3170399665833,198.31775498390198,None,None,None,881.5190235435762,text_01,228,1,1,1,Reading_Baseline_main_no_click,None,Forscher,,,,,OA07,001,no,1500,2000,145,274,321,2024-08-29_12h35.36.112,EXNAT_3_fMRI_Psychopy2023.1.3,2023.1.3,59.95674393006983,
0,0,0,0,,,,,,,,,,,#F989A2,762.2170281410217,199.21774315834045,None,None,None,739.2987818568758,text_01,229,1,1,1,Reading_Baseline_main_no_click,None,ist,,,,,OA07,001,no,1500,2000,145,274,321,2024-08-29_12h35.36.112,EXNAT_3_fMRI_Psychopy2023.1.3,2023.1.3,59.95674393006983,
0,0,0,0,,,,,,,,,,,#88BA3F,762.9669141769409,199.96762919425964,None,None,None,739.2987818568758,text_01,230,1,1,1,Reading_Baseline_main_no_click,None,das,,,,,OA07,001,no,1500,2000,145,274,321,2024-08-29_12h35.36.112,EXNAT_3_fMRI_Psychopy2023.1.3,2023.1.3,59.95674393006983,
0,0,0,0,,,,,,,,,,,#2AB7EF,763.7166321277618,200.71734714508057,None,None,None,739.2987818568758,text_01,231,1,1,1,Reading_Baseline_main_no_click,None,ein,,,,,OA07,001,no,1500,2000,145,274,321,2024-08-29_12h35.36.112,EXNAT_3_fMRI_Psychopy2023.1.3,2023.1.3,59.95674393006983,
0,0,0,0,,,,,,,,,,,#D292F3,764.4668610095978,201.4675760269165,None,None,None,913.8748384841367,text_01,232,1,1,1,Reading_Baseline_main_no_click,None,besonderer,,,,,OA07,001,no,1500,2000,145,274,321,2024-08-29_12h35.36.112,EXNAT_3_fMRI_Psychopy2023.1.3,2023.1.3,59.95674393006983,
0,0,0,0,,,,,,,,,,,#2AB7EF,765.3834030628204,202.38411808013916,None,None,None,927.6948145557637,text_01,233,1,1,1,Reading_Baseline_main_no_click,None,Glücksfall.,,,,,OA07,001,no,1500,2000,145,274,321,2024-08-29_12h35.36.112,EXNAT_3_fMRI_Psychopy2023.1.3,2023.1.3,59.95674393006983,
0,0,0,0,,,,,,,,,,,#88BA3F,766.3166971206665,203.31741213798523,None,None,None,951.9176568319228,text_01,234,1,1,1,Reading_Baseline_main_no_click,None,Normalerweise,,,,,OA07,001,no,1500,2000,145,274,321,2024-08-29_12h35.36.112,EXNAT_3_fMRI_Psychopy2023.1.3,2023.1.3,59.95674393006983,
0,0,0,0,,,,,,,,,,,#2AB7EF,767.2835261821747,204.2842411994934,None,None,None,781.0126823623841,text_01,235,1,1,1,Reading_Baseline_main_no_click,None,sind,,,,,OA07,001,no,1500,2000,145,274,321,2024-08-29_12h35.36.112,EXNAT_3_fMRI_Psychopy2023.1.3,2023.1.3,59.95674393006983,
0,0,0,0,,,,,,,,,,,#D292F3,768.0831401348114,205.08385515213013,None,None,None,739.2987818568758,text_01,236,1,1,1,Reading_Baseline_main_no_click,None,die,,,,,OA07,001,no,1500,2000,145,274,321,2024-08-29_12h35.36.112,EXNAT_3_fMRI_Psychopy2023.1.3,2023.1.3,59.95674393006983,
0,0,0,0,,,,,,,,,,,#D292F3,768.8330640792847,205.8337790966034,None,None,None,839.8051230380679,text_01,237,1,1,1,Reading_Baseline_main_no_click,None,großen,,,,,OA07,001,no,1500,2000,145,274,321,2024-08-29_12h35.36.112,EXNAT_3_fMRI_Psychopy2023.1.3,2023.1.3,59.95674393006983,
0,0,0,0,,,,,,,,,,,#88BA3F,769.6830680370331,206.6837830543518,None,None,None,862.1569716130205,text_01,238,1,1,1,Reading_Baseline_main_no_click,None,Kalmare,,,,,OA07,001,no,1500,2000,145,274,321,2024-08-29_12h35.36.112,EXNAT_3_fMRI_Psychopy2023.1.3,2023.1.3,59.95674393006983,
0,0,0,0,,,,,,,,,,,#F989A2,770.549399137497,207.55011415481567,None,None,None,725.0,text_01,239,1,1,1,Reading_Baseline_main_no_click,None,so,,,,,OA07,001,no,1500,2000,145,274,321,2024-08-29_12h35.36.112,EXNAT_3_fMRI_Psychopy2023.1.3,2023.1.3,59.95674393006983,
0,0,0,0,,,,,,,,,,,#F989A2,771.2827920913696,208.28350710868835,None,None,None,839.8051230380679,text_01,240,1,1,1,Reading_Baseline_main_no_click,None,schwer,,,,,OA07,001,no,1500,2000,145,274,321,2024-08-29_12h35.36.112,EXNAT_3_fMRI_Psychopy2023.1.3,2023.1.3,59.95674393006983,
0,0,0,0,,,,,,,,,,,#2AB7EF,772.1325240135193,209.133239030838,None,None,None,739.2987818568758,text_01,241,1,1,1,Reading_Baseline_main_no_click,None,vor,,,,,OA07,001,no,1500,2000,145,274,321,2024-08-29_12h35.36.112,EXNAT_3_fMRI_Psychopy2023.1.3,2023.1.3,59.95674393006983,
0,0,0,0,,,,,,,,,,,#F989A2,772.8824491500854,209.88316416740417,None,None,None,739.2987818568758,text_01,242,1,1,1,Reading_Baseline_main_no_click,None,die,,,,,OA07,001,no,1500,2000,145,274,321,2024-08-29_12h35.36.112,EXNAT_3_fMRI_Psychopy2023.1.3,2023.1.3,59.95674393006983,
0,0,0,0,,,,,,,,,,,#2AB7EF,773.6325919628143,210.63330698013306,None,None,None,839.8051230380679,text_01,243,1,1,1,Reading_Baseline_main_no_click,None,Kamera,,,,,OA07,001,no,1500,2000,145,274,321,2024-08-29_12h35.36.112,EXNAT_3_fMRI_Psychopy2023.1.3,2023.1.3,59.95674393006983,
0,0,0,0,,,,,,,,,,,#88BA3F,774.4823620319366,211.48307704925537,None,None,None,725.0,text_01,244,1,1,1,Reading_Baseline_main_no_click,None,zu,,,,,OA07,001,no,1500,2000,145,274,321,2024-08-29_12h35.36.112,EXNAT_3_fMRI_Psychopy2023.1.3,2023.1.3,59.95674393006983,
0,0,0,0,,,,,,,,,,,#2AB7EF,775.2160861492157,212.21680116653442,None,None,None,898.5975637137518,text_01,245,1,1,1,Reading_Baseline_main_no_click,None,"bekommen,",,,,,OA07,001,no,1500,2000,145,274,321,2024-08-29_12h35.36.112,EXNAT_3_fMRI_Psychopy2023.1.3,2023.1.3,59.95674393006983,
0,0,0,0,,,,,,,,,,,#D292F3,776.1321980953217,213.13291311264038,None,None,None,781.0126823623841,text_01,246,1,1,1,Reading_Baseline_main_no_click,None,dass,,,,,OA07,001,no,1500,2000,145,274,321,2024-08-29_12h35.36.112,EXNAT_3_fMRI_Psychopy2023.1.3,2023.1.3,59.95674393006983,
0,0,0,0,,,,,,,,,,,#D292F3,776.9156520366669,213.9163670539856,None,None,None,881.5190235435762,text_01,247,1,1,1,Reading_Baseline_main_no_click,None,Forscher,,,,,OA07,001,no,1500,2000,145,274,321,2024-08-29_12h35.36.112,EXNAT_3_fMRI_Psychopy2023.1.3,2023.1.3,59.95674393006983,
0,0,0,0,,,,,,,,,,,#88BA3F,777.8155801296234,214.81629514694214,None,None,None,898.5975637137518,text_01,248,1,1,1,Reading_Baseline_main_no_click,None,teilweise,,,,,OA07,001,no,1500,2000,145,274,321,2024-08-29_12h35.36.112,EXNAT_3_fMRI_Psychopy2023.1.3,2023.1.3,59.95674393006983,
0,0,0,0,,,,,,,,,,,#F989A2,778.7319910526276,215.7327060699463,None,None,None,739.2987818568758,text_01,249,1,1,1,Reading_Baseline_main_no_click,None,auf,,,,,OA07,001,no,1500,2000,145,274,321,2024-08-29_12h35.36.112,EXNAT_3_fMRI_Psychopy2023.1.3,2023.1.3,59.95674393006983,
0,0,0,0,,,,,,,,,,,#88BA3F,779.4820799827576,216.4827950000763,None,None,None,881.5190235435762,text_01,250,1,1,1,Reading_Baseline_main_no_click,None,seltsame,,,,,OA07,001,no,1500,2000,145,274,321,2024-08-29_12h35.36.112,EXNAT_3_fMRI_Psychopy2023.1.3,2023.1.3,59.95674393006983,
0,0,0,0,,,,,,,,,,,#F989A2,780.3819770812988,217.38269209861755,None,None,None,813.3684973029445,text_01,251,1,1,1,Reading_Baseline_main_no_click,None,Ideen,,,,,OA07,001,no,1500,2000,145,274,321,2024-08-29_12h35.36.112,EXNAT_3_fMRI_Psychopy2023.1.3,2023.1.3,59.95674393006983,
0,0,0,0,,,,,,,,,,,#D292F3,781.1985991001129,218.19931411743164,None,None,None,862.1569716130205,text_01,252,1,1,1,Reading_Baseline_main_no_click,None,kommen.,,,,,OA07,001,no,1500,2000,145,274,321,2024-08-29_12h35.36.112,EXNAT_3_fMRI_Psychopy2023.1.3,2023.1.3,59.95674393006983,
0,0,0,0,,,,,,,,,,,#F989A2,782.0652151107788,219.06593012809753,None,None,None,739.2987818568758,text_01,253,1,1,1,Reading_Baseline_main_no_click,None,Ein,,,,,OA07,001,no,1500,2000,145,274,321,2024-08-29_12h35.36.112,EXNAT_3_fMRI_Psychopy2023.1.3,2023.1.3,59.95674393006983,
0,0,0,0,,,,,,,,,,,#D292F3,782.8153359889984,219.81605100631714,None,None,None,862.1569716130205,text_01,254,1,1,1,Reading_Baseline_main_no_click,None,Biologe,,,,,OA07,001,no,1500,2000,145,274,321,2024-08-29_12h35.36.112,EXNAT_3_fMRI_Psychopy2023.1.3,2023.1.3,59.95674393006983,
0,0,0,0,,,,,,,,,,,#88BA3F,783.6815021038055,220.68221712112427,None,None,None,739.2987818568758,text_01,255,1,1,1,Reading_Baseline_main_no_click,None,aus,,,,,OA07,001,no,1500,2000,145,274,321,2024-08-29_12h35.36.112,EXNAT_3_fMRI_Psychopy2023.1.3,2023.1.3,59.95674393006983,
0,0,0,0,,,,,,,,,,,#F989A2,784.431694984436,221.43241000175476,None,None,None,913.8748384841367,text_01,256,1,1,1,Reading_Baseline_main_no_click,None,Neuseeland,,,,,OA07,001,no,1500,2000,145,274,321,2024-08-29_12h35.36.112,EXNAT_3_fMRI_Psychopy2023.1.3,2023.1.3,59.95674393006983,
0,0,0,0,,,,,,,,,,,#88BA3F,785.3480660915375,222.3487811088562,None,None,None,781.0126823623841,text_01,257,1,1,1,Reading_Baseline_main_no_click,None,etwa,,,,,OA07,001,no,1500,2000,145,274,321,2024-08-29_12h35.36.112,EXNAT_3_fMRI_Psychopy2023.1.3,2023.1.3,59.95674393006983,
0,0,0,0,,,,,,,,,,,#D292F3,786.13139295578,223.13210797309875,None,None,None,781.0126823623841,text_01,258,1,1,1,Reading_Baseline_main_no_click,None,will,,,,,OA07,001,no,1500,2000,145,274,321,2024-08-29_12h35.36.112,EXNAT_3_fMRI_Psychopy2023.1.3,2023.1.3,59.95674393006983,
0,0,0,0,,,,,,,,,,,#2AB7EF,786.9148170948029,223.91553211212158,None,None,None,913.8748384841367,text_01,259,1,1,1,Reading_Baseline_main_no_click,None,"versuchen,",,,,,OA07,001,no,1500,2000,145,274,321,2024-08-29_12h35.36.112,EXNAT_3_fMRI_Psychopy2023.1.3,2023.1.3,59.95674393006983,
0,0,0,0,,,,,,,,,,,#F989A2,787.8311660289764,224.83188104629517,None,None,None,739.2987818568758,text_01,260,1,1,1,Reading_Baseline_main_no_click,None,den,,,,,OA07,001,no,1500,2000,145,274,321,2024-08-29_12h35.36.112,EXNAT_3_fMRI_Psychopy2023.1.3,2023.1.3,59.95674393006983,
0,0,0,0,,,,,,,,,,,#F989A2,788.5813269615173,225.58204197883606,None,None,None,913.8748384841367,text_01,261,1,1,1,Reading_Baseline_main_no_click,None,legendären,,,,,OA07,001,no,1500,2000,145,274,321,2024-08-29_12h35.36.112,EXNAT_3_fMRI_Psychopy2023.1.3,2023.1.3,59.95674393006983,
0,0,0,0,,,,,,,,,,,#2AB7EF,789.4981970787048,226.49891209602356,None,None,None,940.3114642192601,text_01,262,1,1,1,Reading_Baseline_main_no_click,None,Riesenkalmar,,,,,OA07,001,no,1500,2000,145,274,321,2024-08-29_12h35.36.112,EXNAT_3_fMRI_Psychopy2023.1.3,2023.1.3,59.95674393006983,
0,0,0,0,,,,,,,,,,,#88BA3F,790.4478180408478,227.4485330581665,None,None,None,739.2987818568758,text_01,263,1,1,1,Reading_Baseline_main_no_click,None,mit,,,,,OA07,001,no,1500,2000,145,274,321,2024-08-29_12h35.36.112,EXNAT_3_fMRI_Psychopy2023.1.3,2023.1.3,59.95674393006983,
0,0,0,0,,,,,,,,,,,#2AB7EF,791.198438167572,228.19915318489075,None,None,None,962.6633127942125,text_01,264,1,1,1,Reading_Baseline_main_no_click,None,Sexualhormonen,,,,,OA07,001,no,1500,2000,145,274,321,2024-08-29_12h35.36.112,EXNAT_3_fMRI_Psychopy2023.1.3,2023.1.3,59.95674393006983,
0,0,0,0,,,,,,,,,,,#88BA3F,792.1640830039978,229.16479802131653,None,None,None,739.2987818568758,text_01,265,1,1,1,Reading_Baseline_main_no_click,None,vor,,,,,OA07,001,no,1500,2000,145,274,321,2024-08-29_12h35.36.112,EXNAT_3_fMRI_Psychopy2023.1.3,2023.1.3,59.95674393006983,
0,0,0,0,,,,,,,,,,,#D292F3,792.914057970047,229.91477298736572,None,None,None,739.2987818568758,text_01,266,1,1,1,Reading_Baseline_main_no_click,None,die,,,,,OA07,001,no,1500,2000,145,274,321,2024-08-29_12h35.36.112,EXNAT_3_fMRI_Psychopy2023.1.3,2023.1.3,59.95674393006983,
0,0,0,0,,,,,,,,,,,#F989A2,793.6640660762787,230.6647810935974,None,None,None,813.3684973029445,text_01,267,1,1,1,Reading_Baseline_main_no_click,None,Linse,,,,,OA07,001,no,1500,2000,145,274,321,2024-08-29_12h35.36.112,EXNAT_3_fMRI_Psychopy2023.1.3,2023.1.3,59.95674393006983,
0,0,0,0,,,,,,,,,,,#D292F3,794.480504989624,231.48122000694275,None,None,None,725.0,text_01,268,1,1,1,Reading_Baseline_main_no_click,None,zu,,,,,OA07,001,no,1500,2000,145,274,321,2024-08-29_12h35.36.112,EXNAT_3_fMRI_Psychopy2023.1.3,2023.1.3,59.95674393006983,
0,0,0,0,,,,,,,,,,,#F989A2,795.2142381668091,232.2149531841278,None,None,None,862.1569716130205,text_01,269,1,1,1,Reading_Baseline_main_no_click,None,locken.,,,,,OA07,001,no,1500,2000,145,274,321,2024-08-29_12h35.36.112,EXNAT_3_fMRI_Psychopy2023.1.3,2023.1.3,59.95674393006983,
0,0,0,0,,,,,,,,,,,#2AB7EF,796.0811049938202,233.08182001113892,None,None,None,739.2987818568758,text_01,270,1,1,1,Reading_Baseline_main_no_click,None,Der,,,,,OA07,001,no,1500,2000,145,274,321,2024-08-29_12h35.36.112,EXNAT_3_fMRI_Psychopy2023.1.3,2023.1.3,59.95674393006983,
0,0,0,0,,,,,,,,,,,#88BA3F,796.8315739631653,233.832288980484,None,None,None,940.3114642192601,text_01,271,1,1,1,Reading_Baseline_main_no_click,None,Riesenkalmar,,,,,OA07,001,no,1500,2000,145,274,321,2024-08-29_12h35.36.112,EXNAT_3_fMRI_Psychopy2023.1.3,2023.1.3,59.95674393006983,
0,0,0,0,,,,,,,,,,,#D292F3,797.7806830406189,234.78139805793762,None,None,None,739.2987818568758,text_01,272,1,1,1,Reading_Baseline_main_no_click,None,ist,,,,,OA07,001,no,1500,2000,145,274,321,2024-08-29_12h35.36.112,EXNAT_3_fMRI_Psychopy2023.1.3,2023.1.3,59.95674393006983,
0,0,0,0,,,,,,,,,,,#88BA3F,798.5306220054626,235.53133702278137,None,None,None,739.2987818568758,text_01,273,1,1,1,Reading_Baseline_main_no_click,None,mit,,,,,OA07,001,no,1500,2000,145,274,321,2024-08-29_12h35.36.112,EXNAT_3_fMRI_Psychopy2023.1.3,2023.1.3,59.95674393006983,
0,0,0,0,,,,,,,,,,,#F989A2,799.2807281017303,236.28144311904907,None,None,None,739.2987818568758,text_01,274,1,1,1,Reading_Baseline_main_no_click,None,bis,,,,,OA07,001,no,1500,2000,145,274,321,2024-08-29_12h35.36.112,EXNAT_3_fMRI_Psychopy2023.1.3,2023.1.3,59.95674393006983,
0,0,0,0,,,,,,,,,,,#D292F3,800.0303611755371,237.03107619285583,None,None,None,725.0,text_01,275,1,1,1,Reading_Baseline_main_no_click,None,zu,,,,,OA07,001,no,1500,2000,145,274,321,2024-08-29_12h35.36.112,EXNAT_3_fMRI_Psychopy2023.1.3,2023.1.3,59.95674393006983,
0,0,0,0,,,,,,,,,,,#2AB7EF,800.7636530399323,237.76436805725098,None,None,None,725.0,text_01,276,1,1,1,Reading_Baseline_main_no_click,None,20,,,,,OA07,001,no,1500,2000,145,274,321,2024-08-29_12h35.36.112,EXNAT_3_fMRI_Psychopy2023.1.3,2023.1.3,59.95674393006983,
0,0,0,0,,,,,,,,,,,#88BA3F,801.496973991394,238.49768900871277,None,None,None,839.8051230380679,text_01,277,1,1,1,Reading_Baseline_main_no_click,None,Metern,,,,,OA07,001,no,1500,2000,145,274,321,2024-08-29_12h35.36.112,EXNAT_3_fMRI_Psychopy2023.1.3,2023.1.3,59.95674393006983,
0,0,0,0,,,,,,,,,,,#D292F3,802.3469469547272,239.3476619720459,None,None,None,813.3684973029445,text_01,278,1,1,1,Reading_Baseline_main_no_click,None,Länge,,,,,OA07,001,no,1500,2000,145,274,321,2024-08-29_12h35.36.112,EXNAT_3_fMRI_Psychopy2023.1.3,2023.1.3,59.95674393006983,
0,0,0,0,,,,,,,,,,,#F989A2,803.1633989810944,240.1641139984131,None,None,None,739.2987818568758,text_01,279,1,1,1,Reading_Baseline_main_no_click,None,und,,,,,OA07,001,no,1500,2000,145,274,321,2024-08-29_12h35.36.112,EXNAT_3_fMRI_Psychopy2023.1.3,2023.1.3,59.95674393006983,
0,0,0,0,,,,,,,,,,,#2AB7EF,803.9133710861206,240.91408610343933,None,None,None,813.3684973029445,text_01,280,1,1,1,Reading_Baseline_main_no_click,None,einer,,,,,OA07,001,no,1500,2000,145,274,321,2024-08-29_12h35.36.112,EXNAT_3_fMRI_Psychopy2023.1.3,2023.1.3,59.95674393006983,
0,0,0,0,,,,,,,,,,,#F989A2,804.7304439544678,241.7311589717865,None,None,None,839.8051230380679,text_01,281,1,1,1,Reading_Baseline_main_no_click,None,halben,,,,,OA07,001,no,1500,2000,145,274,321,2024-08-29_12h35.36.112,EXNAT_3_fMRI_Psychopy2023.1.3,2023.1.3,59.95674393006983,
0,0,0,0,,,,,,,,,,,#2AB7EF,805.5800700187683,242.58078503608704,None,None,None,813.3684973029445,text_01,282,1,1,1,Reading_Baseline_main_no_click,None,Tonne,,,,,OA07,001,no,1500,2000,145,274,321,2024-08-29_12h35.36.112,EXNAT_3_fMRI_Psychopy2023.1.3,2023.1.3,59.95674393006983,
0,0,0,0,,,,,,,,,,,#D292F3,806.3966431617737,243.3973581790924,None,None,None,862.1569716130205,text_01,283,1,1,1,Reading_Baseline_main_no_click,None,Gewicht,,,,,OA07,001,no,1500,2000,145,274,321,2024-08-29_12h35.36.112,EXNAT_3_fMRI_Psychopy2023.1.3,2023.1.3,59.95674393006983,
0,0,0,0,,,,,,,,,,,#D292F3,807.263020992279,244.26373600959778,None,None,None,739.2987818568758,text_01,284,1,1,1,Reading_Baseline_main_no_click,None,das,,,,,OA07,001,no,1500,2000,145,274,321,2024-08-29_12h35.36.112,EXNAT_3_fMRI_Psychopy2023.1.3,2023.1.3,59.95674393006983,
0,0,0,0,,,,,,,,,,,#2AB7EF,808.0132839679718,245.01399898529053,None,None,None,839.8051230380679,text_01,285,1,1,1,Reading_Baseline_main_no_click,None,größte,,,,,OA07,001,no,1500,2000,145,274,321,2024-08-29_12h35.36.112,EXNAT_3_fMRI_Psychopy2023.1.3,2023.1.3,59.95674393006983,
0,0,0,0,,,,,,,,,,,#2AB7EF,808.8630130290985,245.86372804641724,None,None,None,913.8748384841367,text_01,286,1,1,1,Reading_Baseline_main_no_click,None,wirbellose,,,,,OA07,001,no,1500,2000,145,274,321,2024-08-29_12h35.36.112,EXNAT_3_fMRI_Psychopy2023.1.3,2023.1.3,59.95674393006983,
0,0,0,0,,,,,,,,,,,#D292F3,809.7794950008392,246.78021001815796,None,None,None,781.0126823623841,text_01,287,1,1,1,Reading_Baseline_main_no_click,None,Tier,,,,,OA07,001,no,1500,2000,145,274,321,2024-08-29_12h35.36.112,EXNAT_3_fMRI_Psychopy2023.1.3,2023.1.3,59.95674393006983,
0,0,0,0,,,,,,,,,,,#F989A2,810.5626430511475,247.5633580684662,None,None,None,739.2987818568758,text_01,288,1,1,1,Reading_Baseline_main_no_click,None,der,,,,,OA07,001,no,1500,2000,145,274,321,2024-08-29_12h35.36.112,EXNAT_3_fMRI_Psychopy2023.1.3,2023.1.3,59.95674393006983,
0,0,0,0,,,,,,,,,,,#88BA3F,811.3126990795135,248.31341409683228,None,None,None,813.3684973029445,text_01,289,1,1,1,Reading_Baseline_main_no_click,None,Welt.,,,,,OA07,001,no,1500,2000,145,274,321,2024-08-29_12h35.36.112,EXNAT_3_fMRI_Psychopy2023.1.3,2023.1.3,59.95674393006983,
0,0,0,0,,,,,,,,,,,#88BA3F,812.1296019554138,249.13031697273254,None,None,None,839.8051230380679,text_01,290,1,1,1,Reading_Baseline_main_no_click,None,Bisher,,,,,OA07,001,no,1500,2000,145,274,321,2024-08-29_12h35.36.112,EXNAT_3_fMRI_Psychopy2023.1.3,2023.1.3,59.95674393006983,
0,0,0,0,,,,,,,,,,,#D292F3,812.9792921543121,249.98000717163086,None,None,None,813.3684973029445,text_01,291,1,1,1,Reading_Baseline_main_no_click,None,wurde,,,,,OA07,001,no,1500,2000,145,274,321,2024-08-29_12h35.36.112,EXNAT_3_fMRI_Psychopy2023.1.3,2023.1.3,59.95674393006983,
0,0,0,0,,,,,,,,,,,#F989A2,813.7956910133362,250.7964060306549,None,None,None,725.0,text_01,292,1,1,1,Reading_Baseline_main_no_click,None,er,,,,,OA07,001,no,1500,2000,145,274,321,2024-08-29_12h35.36.112,EXNAT_3_fMRI_Psychopy2023.1.3,2023.1.3,59.95674393006983,
0,0,0,0,,,,,,,,,,,#D292F3,814.5290400981903,251.52975511550903,None,None,None,781.0126823623841,text_01,293,1,1,1,Reading_Baseline_main_no_click,None,aber,,,,,OA07,001,no,1500,2000,145,274,321,2024-08-29_12h35.36.112,EXNAT_3_fMRI_Psychopy2023.1.3,2023.1.3,59.95674393006983,
0,0,0,0,,,,,,,,,,,#2AB7EF,815.3122770786285,252.31299209594727,None,None,None,781.0126823623841,text_01,294,1,1,1,Reading_Baseline_main_no_click,None,noch,,,,,OA07,001,no,1500,2000,145,274,321,2024-08-29_12h35.36.112,EXNAT_3_fMRI_Psychopy2023.1.3,2023.1.3,59.95674393006983,
0,0,0,0,,,,,,,,,,,#F989A2,816.0955321788788,253.0962471961975,None,None,None,739.2987818568758,text_01,295,1,1,1,Reading_Baseline_main_no_click,None,nie,,,,,OA07,001,no,1500,2000,145,274,321,2024-08-29_12h35.36.112,EXNAT_3_fMRI_Psychopy2023.1.3,2023.1.3,59.95674393006983,
0,0,0,0,,,,,,,,,,,#88BA3F,816.8455879688263,253.84630298614502,None,None,None,898.5975637137518,text_01,296,1,1,1,Reading_Baseline_main_no_click,None,innerhalb,,,,,OA07,001,no,1500,2000,145,274,321,2024-08-29_12h35.36.112,EXNAT_3_fMRI_Psychopy2023.1.3,2023.1.3,59.95674393006983,
0,0,0,0,,,,,,,,,,,#2AB7EF,817.7620179653168,254.7627329826355,None,None,None,839.8051230380679,text_01,297,1,1,1,Reading_Baseline_main_no_click,None,seines,,,,,OA07,001,no,1500,2000,145,274,321,2024-08-29_12h35.36.112,EXNAT_3_fMRI_Psychopy2023.1.3,2023.1.3,59.95674393006983,
0,0,0,0,,,,,,,,,,,#F989A2,818.6120150089264,255.61273002624512,None,None,None,927.6948145557637,text_01,298,1,1,1,Reading_Baseline_main_no_click,None,natürlichen,,,,,OA07,001,no,1500,2000,145,274,321,2024-08-29_12h35.36.112,EXNAT_3_fMRI_Psychopy2023.1.3,2023.1.3,59.95674393006983,
0,0,0,0,,,,,,,,,,,#D292F3,819.5455331802368,256.54624819755554,None,None,None,927.6948145557637,text_01,299,1,1,1,Reading_Baseline_main_no_click,None,Lebensraums,,,,,OA07,001,no,1500,2000,145,274,321,2024-08-29_12h35.36.112,EXNAT_3_fMRI_Psychopy2023.1.3,2023.1.3,59.95674393006983,
0,0,0,0,,,,,,,,,,,#2AB7EF,820.4788150787354,257.4795300960541,None,None,None,881.5190235435762,text_01,300,1,1,1,Reading_Baseline_main_no_click,None,gefilmt.,,,,,OA07,001,no,1500,2000,145,274,321,2024-08-29_12h35.36.112,EXNAT_3_fMRI_Psychopy2023.1.3,2023.1.3,59.95674393006983,
0,0,0,0,,,,,,,,,,,,821.4269089698792,258.4276239871979,,,,,text_01,,1,1,1,Reading_Baseline_main_no_click,None,,Q1,NA,NA,False,OA07,001,no,1500,2000,145,274,321,2024-08-29_12h35.36.112,EXNAT_3_fMRI_Psychopy2023.1.3,2023.1.3,59.95674393006983,
0,0,0,0,,,,,,,,,,,,831.4729051589966,268.4736201763153,,,,,text_01,,1,1,1,Reading_Baseline_main_no_click,None,,Q2,3,c,False,OA07,001,no,1500,2000,145,274,321,2024-08-29_12h35.36.112,EXNAT_3_fMRI_Psychopy2023.1.3,2023.1.3,59.95674393006983,
0,0,0,0,,,,,,,,,,,,832.714259147644,269.71497416496277,,,,,text_01,,1,1,1,Reading_Baseline_main_no_click,None,,Q3,1,a,True,OA07,001,no,1500,2000,145,274,321,2024-08-29_12h35.36.112,EXNAT_3_fMRI_Psychopy2023.1.3,2023.1.3,59.95674393006983,
0,0,0,0,,,,,,,,,,,,,,,,,,,,,,,,,,,,,,OA07,001,no,1500,2000,145,274,321,2024-08-29_12h35.36.112,EXNAT_3_fMRI_Psychopy2023.1.3,2023.1.3,59.95674393006983,
1,0,1,0,,,,,,,,,,,#2AB7EF,844.8338990211487,281.8346140384674,None,None,None,913.8748384841367,pseudo_text_02,1,2,1,2,Reading_pseudotext_no_click,None,Ospronamen,,,,,OA07,001,no,1500,2000,145,274,321,2024-08-29_12h35.36.112,EXNAT_3_fMRI_Psychopy2023.1.3,2023.1.3,59.95674393006983,
1,0,1,0,,,,,,,,,,,#F989A2,845.7602350711823,282.760950088501,None,None,None,739.2987818568758,pseudo_text_02,2,2,1,2,Reading_pseudotext_no_click,None,und,,,,,OA07,001,no,1500,2000,145,274,321,2024-08-29_12h35.36.112,EXNAT_3_fMRI_Psychopy2023.1.3,2023.1.3,59.95674393006983,
1,0,1,0,,,,,,,,,,,#88BA3F,846.5108470916748,283.51156210899353,None,None,None,982.0253647247682,pseudo_text_02,3,2,1,2,Reading_pseudotext_no_click,None,Behlraumfinscher,,,,,OA07,001,no,1500,2000,145,274,321,2024-08-29_12h35.36.112,EXNAT_3_fMRI_Psychopy2023.1.3,2023.1.3,59.95674393006983,
1,0,1,0,,,,,,,,,,,#D292F3,847.5096120834351,284.5103271007538,None,None,None,739.2987818568758,pseudo_text_02,4,2,1,2,Reading_pseudotext_no_click,None,auf,,,,,OA07,001,no,1500,2000,145,274,321,2024-08-29_12h35.36.112,EXNAT_3_fMRI_Psychopy2023.1.3,2023.1.3,59.95674393006983,
1,0,1,0,,,,,,,,,,,#2AB7EF,848.2595629692078,285.2602779865265,None,None,None,739.2987818568758,pseudo_text_02,5,2,1,2,Reading_pseudotext_no_click,None,der,,,,,OA07,001,no,1500,2000,145,274,321,2024-08-29_12h35.36.112,EXNAT_3_fMRI_Psychopy2023.1.3,2023.1.3,59.95674393006983,
1,0,1,0,,,,,,,,,,,#88BA3F,849.0099201202393,286.010635137558,None,None,None,839.8051230380679,pseudo_text_02,6,2,1,2,Reading_pseudotext_no_click,None,vannen,,,,,OA07,001,no,1500,2000,145,274,321,2024-08-29_12h35.36.112,EXNAT_3_fMRI_Psychopy2023.1.3,2023.1.3,59.95674393006983,
1,0,1,0,,,,,,,,,,,#D292F3,849.859806060791,286.86052107810974,None,None,None,781.0126823623841,pseudo_text_02,7,2,1,2,Reading_pseudotext_no_click,None,Felt,,,,,OA07,001,no,1500,2000,145,274,321,2024-08-29_12h35.36.112,EXNAT_3_fMRI_Psychopy2023.1.3,2023.1.3,59.95674393006983,
1,0,1,0,,,,,,,,,,,#D292F3,850.6595990657806,287.66031408309937,None,None,None,839.8051230380679,pseudo_text_02,8,2,1,2,Reading_pseudotext_no_click,None,nunsen,,,,,OA07,001,no,1500,2000,145,274,321,2024-08-29_12h35.36.112,EXNAT_3_fMRI_Psychopy2023.1.3,2023.1.3,59.95674393006983,
1,0,1,0,,,,,,,,,,,#88BA3F,851.5089960098267,288.5097110271454,None,None,None,739.2987818568758,pseudo_text_02,9,2,1,2,Reading_pseudotext_no_click,None,von,,,,,OA07,001,no,1500,2000,145,274,321,2024-08-29_12h35.36.112,EXNAT_3_fMRI_Psychopy2023.1.3,2023.1.3,59.95674393006983,
1,0,1,0,,,,,,,,,,,#F989A2,852.258905172348,289.25962018966675,None,None,None,739.2987818568758,pseudo_text_02,10,2,1,2,Reading_pseudotext_no_click,None,der,,,,,OA07,001,no,1500,2000,145,274,321,2024-08-29_12h35.36.112,EXNAT_3_fMRI_Psychopy2023.1.3,2023.1.3,59.95674393006983,
1,0,1,0,,,,,,,,,,,#2AB7EF,853.0095450878143,290.01026010513306,None,None,None,881.5190235435762,pseudo_text_02,11,2,1,2,Reading_pseudotext_no_click,None,kölplich,,,,,OA07,001,no,1500,2000,145,274,321,2024-08-29_12h35.36.112,EXNAT_3_fMRI_Psychopy2023.1.3,2023.1.3,59.95674393006983,
1,0,1,0,,,,,,,,,,,#F989A2,853.9092969894409,290.91001200675964,None,None,None,898.5975637137518,pseudo_text_02,12,2,1,2,Reading_pseudotext_no_click,None,gerackten,,,,,OA07,001,no,1500,2000,145,274,321,2024-08-29_12h35.36.112,EXNAT_3_fMRI_Psychopy2023.1.3,2023.1.3,59.95674393006983,
1,0,1,0,,,,,,,,,,,#F989A2,854.8259170055389,291.82663202285767,None,None,None,913.8748384841367,pseudo_text_02,13,2,1,2,Reading_pseudotext_no_click,None,Nukdeutung,,,,,OA07,001,no,1500,2000,145,274,321,2024-08-29_12h35.36.112,EXNAT_3_fMRI_Psychopy2023.1.3,2023.1.3,59.95674393006983,
1,0,1,0,,,,,,,,,,,#88BA3F,855.7420949935913,292.74281001091003,None,None,None,813.3684973029445,pseudo_text_02,14,2,1,2,Reading_pseudotext_no_click,None,eines,,,,,OA07,001,no,1500,2000,145,274,321,2024-08-29_12h35.36.112,EXNAT_3_fMRI_Psychopy2023.1.3,2023.1.3,59.95674393006983,
1,0,1,0,,,,,,,,,,,#D292F3,856.5586950778961,293.55941009521484,None,None,None,813.3684973029445,pseudo_text_02,15,2,1,2,Reading_pseudotext_no_click,None,nefen,,,,,OA07,001,no,1500,2000,145,274,321,2024-08-29_12h35.36.112,EXNAT_3_fMRI_Psychopy2023.1.3,2023.1.3,59.95674393006983,
1,0,1,0,,,,,,,,,,,#D292F3,857.3757309913635,294.37644600868225,None,None,None,881.5190235435762,pseudo_text_02,16,2,1,2,Reading_pseudotext_no_click,None,Gnameten,,,,,OA07,001,no,1500,2000,145,274,321,2024-08-29_12h35.36.112,EXNAT_3_fMRI_Psychopy2023.1.3,2023.1.3,59.95674393006983,
1,0,1,0,,,,,,,,,,,#F989A2,858.2757911682129,295.2765061855316,None,None,None,898.5975637137518,pseudo_text_02,17,2,1,2,Reading_pseudotext_no_click,None,außerlopf,,,,,OA07,001,no,1500,2000,145,274,321,2024-08-29_12h35.36.112,EXNAT_3_fMRI_Psychopy2023.1.3,2023.1.3,59.95674393006983,
1,0,1,0,,,,,,,,,,,#88BA3F,859.1917841434479,296.1924991607666,None,None,None,862.1569716130205,pseudo_text_02,18,2,1,2,Reading_pseudotext_no_click,None,mugeres,,,,,OA07,001,no,1500,2000,145,274,321,2024-08-29_12h35.36.112,EXNAT_3_fMRI_Psychopy2023.1.3,2023.1.3,59.95674393006983,
1,0,1,0,,,,,,,,,,,#F989A2,860.0592541694641,297.05996918678284,None,None,None,951.9176568319228,pseudo_text_02,19,2,1,2,Reading_pseudotext_no_click,None,Honzenbystels,,,,,OA07,001,no,1500,2000,145,274,321,2024-08-29_12h35.36.112,EXNAT_3_fMRI_Psychopy2023.1.3,2023.1.3,59.95674393006983,
1,0,1,0,,,,,,,,,,,#F989A2,861.0256340503693,298.026349067688,None,None,None,951.9176568319228,pseudo_text_02,20,2,1,2,Reading_pseudotext_no_click,None,"eligbliniert,",,,,,OA07,001,no,1500,2000,145,274,321,2024-08-29_12h35.36.112,EXNAT_3_fMRI_Psychopy2023.1.3,2023.1.3,59.95674393006983,
1,0,1,0,,,,,,,,,,,#2AB7EF,861.9915699958801,298.99228501319885,None,None,None,739.2987818568758,pseudo_text_02,21,2,1,2,Reading_pseudotext_no_click,None,und,,,,,OA07,001,no,1500,2000,145,274,321,2024-08-29_12h35.36.112,EXNAT_3_fMRI_Psychopy2023.1.3,2023.1.3,59.95674393006983,
1,0,1,0,,,,,,,,,,,#2AB7EF,862.7414591312408,299.74217414855957,None,None,None,813.3684973029445,pseudo_text_02,22,2,1,2,Reading_pseudotext_no_click,None,mafen,,,,,OA07,001,no,1500,2000,145,274,321,2024-08-29_12h35.36.112,EXNAT_3_fMRI_Psychopy2023.1.3,2023.1.3,59.95674393006983,
1,0,1,0,,,,,,,,,,,#88BA3F,863.5581231117249,300.5588381290436,None,None,None,898.5975637137518,pseudo_text_02,23,2,1,2,Reading_pseudotext_no_click,None,"zurehmen,",,,,,OA07,001,no,1500,2000,145,274,321,2024-08-29_12h35.36.112,EXNAT_3_fMRI_Psychopy2023.1.3,2023.1.3,59.95674393006983,
1,0,1,0,,,,,,,,,,,#2AB7EF,864.4744801521301,301.47519516944885,None,None,None,725.0,pseudo_text_02,24,2,1,2,Reading_pseudotext_no_click,None,um,,,,,OA07,001,no,1500,2000,145,274,321,2024-08-29_12h35.36.112,EXNAT_3_fMRI_Psychopy2023.1.3,2023.1.3,59.95674393006983,
1,0,1,0,,,,,,,,,,,#F989A2,865.207985162735,302.2087001800537,None,None,None,813.3684973029445,pseudo_text_02,25,2,1,2,Reading_pseudotext_no_click,None,diese,,,,,OA07,001,no,1500,2000,145,274,321,2024-08-29_12h35.36.112,EXNAT_3_fMRI_Psychopy2023.1.3,2023.1.3,59.95674393006983,
1,0,1,0,,,,,,,,,,,#88BA3F,866.0254399776459,303.0261549949646,None,None,None,951.9176568319228,pseudo_text_02,26,2,1,2,Reading_pseudotext_no_click,None,meuwinierende,,,,,OA07,001,no,1500,2000,145,274,321,2024-08-29_12h35.36.112,EXNAT_3_fMRI_Psychopy2023.1.3,2023.1.3,59.95674393006983,
1,0,1,0,,,,,,,,,,,#2AB7EF,866.991702079773,303.9924170970917,None,None,None,927.6948145557637,pseudo_text_02,27,2,1,2,Reading_pseudotext_no_click,None,Leähechtung,,,,,OA07,001,no,1500,2000,145,274,321,2024-08-29_12h35.36.112,EXNAT_3_fMRI_Psychopy2023.1.3,2023.1.3,59.95674393006983,
1,0,1,0,,,,,,,,,,,#2AB7EF,867.9243171215057,304.92503213882446,None,None,None,739.2987818568758,pseudo_text_02,28,2,1,2,Reading_pseudotext_no_click,None,aus,,,,,OA07,001,no,1500,2000,145,274,321,2024-08-29_12h35.36.112,EXNAT_3_fMRI_Psychopy2023.1.3,2023.1.3,59.95674393006983,
1,0,1,0,,,,,,,,,,,#88BA3F,868.6745481491089,305.6752631664276,None,None,None,881.5190235435762,pseudo_text_02,29,2,1,2,Reading_pseudotext_no_click,None,köchster,,,,,OA07,001,no,1500,2000,145,274,321,2024-08-29_12h35.36.112,EXNAT_3_fMRI_Psychopy2023.1.3,2023.1.3,59.95674393006983,
1,0,1,0,,,,,,,,,,,#2AB7EF,869.5746719837189,306.5753870010376,None,None,None,781.0126823623841,pseudo_text_02,30,2,1,2,Reading_pseudotext_no_click,None,Döhe,,,,,OA07,001,no,1500,2000,145,274,321,2024-08-29_12h35.36.112,EXNAT_3_fMRI_Psychopy2023.1.3,2023.1.3,59.95674393006983,
1,0,1,0,,,,,,,,,,,#D292F3,870.3740801811218,307.37479519844055,None,None,None,725.0,pseudo_text_02,31,2,1,2,Reading_pseudotext_no_click,None,zu,,,,,OA07,001,no,1500,2000,145,274,321,2024-08-29_12h35.36.112,EXNAT_3_fMRI_Psychopy2023.1.3,2023.1.3,59.95674393006983,
1,0,1,0,,,,,,,,,,,#F989A2,871.1078600883484,308.1085751056671,None,None,None,913.8748384841367,pseudo_text_02,32,2,1,2,Reading_pseudotext_no_click,None,bestiefen.,,,,,OA07,001,no,1500,2000,145,274,321,2024-08-29_12h35.36.112,EXNAT_3_fMRI_Psychopy2023.1.3,2023.1.3,59.95674393006983,
1,0,1,0,,,,,,,,,,,#F989A2,872.0240411758423,309.024756193161,None,None,None,739.2987818568758,pseudo_text_02,33,2,1,2,Reading_pseudotext_no_click,None,Die,,,,,OA07,001,no,1500,2000,145,274,321,2024-08-29_12h35.36.112,EXNAT_3_fMRI_Psychopy2023.1.3,2023.1.3,59.95674393006983,
1,0,1,0,,,,,,,,,,,#D292F3,872.7748670578003,309.775582075119,None,None,None,972.6672791598205,pseudo_text_02,34,2,1,2,Reading_pseudotext_no_click,None,Missenstrendler,,,,,OA07,001,no,1500,2000,145,274,321,2024-08-29_12h35.36.112,EXNAT_3_fMRI_Psychopy2023.1.3,2023.1.3,59.95674393006983,
1,0,1,0,,,,,,,,,,,#D292F3,873.7575490474701,310.7582640647888,None,None,None,862.1569716130205,pseudo_text_02,35,2,1,2,Reading_pseudotext_no_click,None,hillten,,,,,OA07,001,no,1500,2000,145,274,321,2024-08-29_12h35.36.112,EXNAT_3_fMRI_Psychopy2023.1.3,2023.1.3,59.95674393006983,
1,0,1,0,,,,,,,,,,,#88BA3F,874.6238751411438,311.6245901584625,None,None,None,813.3684973029445,pseudo_text_02,36,2,1,2,Reading_pseudotext_no_click,None,darau,,,,,OA07,001,no,1500,2000,145,274,321,2024-08-29_12h35.36.112,EXNAT_3_fMRI_Psychopy2023.1.3,2023.1.3,59.95674393006983,
1,0,1,0,,,,,,,,,,,#88BA3F,875.4402241706848,312.44093918800354,None,None,None,739.2987818568758,pseudo_text_02,37,2,1,2,Reading_pseudotext_no_click,None,die,,,,,OA07,001,no,1500,2000,145,274,321,2024-08-29_12h35.36.112,EXNAT_3_fMRI_Psychopy2023.1.3,2023.1.3,59.95674393006983,
1,0,1,0,,,,,,,,,,,#D292F3,876.1903140544891,313.19102907180786,None,None,None,862.1569716130205,pseudo_text_02,38,2,1,2,Reading_pseudotext_no_click,None,mesieen,,,,,OA07,001,no,1500,2000,145,274,321,2024-08-29_12h35.36.112,EXNAT_3_fMRI_Psychopy2023.1.3,2023.1.3,59.95674393006983,
1,0,1,0,,,,,,,,,,,#2AB7EF,877.0569090843201,314.0576241016388,None,None,None,839.8051230380679,pseudo_text_02,39,2,1,2,Reading_pseudotext_no_click,None,Batten,,,,,OA07,001,no,1500,2000,145,274,321,2024-08-29_12h35.36.112,EXNAT_3_fMRI_Psychopy2023.1.3,2023.1.3,59.95674393006983,
1,0,1,0,,,,,,,,,,,#F989A2,877.9066271781921,314.90734219551086,None,None,None,739.2987818568758,pseudo_text_02,40,2,1,2,Reading_pseudotext_no_click,None,und,,,,,OA07,001,no,1500,2000,145,274,321,2024-08-29_12h35.36.112,EXNAT_3_fMRI_Psychopy2023.1.3,2023.1.3,59.95674393006983,
1,0,1,0,,,,,,,,,,,#88BA3F,878.657191991806,315.65790700912476,None,None,None,951.9176568319228,pseudo_text_02,41,2,1,2,Reading_pseudotext_no_click,None,Eigelstragten,,,,,OA07,001,no,1500,2000,145,274,321,2024-08-29_12h35.36.112,EXNAT_3_fMRI_Psychopy2023.1.3,2023.1.3,59.95674393006983,
1,0,1,0,,,,,,,,,,,#2AB7EF,879.6231150627136,316.62383008003235,None,None,None,739.2987818568758,pseudo_text_02,42,2,1,2,Reading_pseudotext_no_click,None,des,,,,,OA07,001,no,1500,2000,145,274,321,2024-08-29_12h35.36.112,EXNAT_3_fMRI_Psychopy2023.1.3,2023.1.3,59.95674393006983,
1,0,1,0,,,,,,,,,,,#D292F3,880.3732621669769,317.37397718429565,None,None,None,839.8051230380679,pseudo_text_02,43,2,1,2,Reading_pseudotext_no_click,None,felzen,,,,,OA07,001,no,1500,2000,145,274,321,2024-08-29_12h35.36.112,EXNAT_3_fMRI_Psychopy2023.1.3,2023.1.3,59.95674393006983,
1,0,1,0,,,,,,,,,,,#88BA3F,881.2235240936279,318.22423911094666,None,None,None,962.6633127942125,pseudo_text_02,44,2,1,2,Reading_pseudotext_no_click,None,Himmeckdälpers,,,,,OA07,001,no,1500,2000,145,274,321,2024-08-29_12h35.36.112,EXNAT_3_fMRI_Psychopy2023.1.3,2023.1.3,59.95674393006983,
1,0,1,0,,,,,,,,,,,#F989A2,882.1898930072784,319.19060802459717,None,None,None,940.3114642192601,pseudo_text_02,45,2,1,2,Reading_pseudotext_no_click,None,"amorönieren,",,,,,OA07,001,no,1500,2000,145,274,321,2024-08-29_12h35.36.112,EXNAT_3_fMRI_Psychopy2023.1.3,2023.1.3,59.95674393006983,
1,0,1,0,,,,,,,,,,,#F989A2,883.1394710540771,320.1401860713959,None,None,None,725.0,pseudo_text_02,46,2,1,2,Reading_pseudotext_no_click,None,um,,,,,OA07,001,no,1500,2000,145,274,321,2024-08-29_12h35.36.112,EXNAT_3_fMRI_Psychopy2023.1.3,2023.1.3,59.95674393006983,
1,0,1,0,,,,,,,,,,,#2AB7EF,883.873496055603,320.87421107292175,None,None,None,940.3114642192601,pseudo_text_02,47,2,1,2,Reading_pseudotext_no_click,None,Zappschlüsse,,,,,OA07,001,no,1500,2000,145,274,321,2024-08-29_12h35.36.112,EXNAT_3_fMRI_Psychopy2023.1.3,2023.1.3,59.95674393006983,
1,0,1,0,,,,,,,,,,,#D292F3,884.8226730823517,321.8233880996704,None,None,None,739.2987818568758,pseudo_text_02,48,2,1,2,Reading_pseudotext_no_click,None,auf,,,,,OA07,001,no,1500,2000,145,274,321,2024-08-29_12h35.36.112,EXNAT_3_fMRI_Psychopy2023.1.3,2023.1.3,59.95674393006983,
1,0,1,0,,,,,,,,,,,#D292F3,885.5728089809418,322.5735239982605,None,None,None,813.3684973029445,pseudo_text_02,49,2,1,2,Reading_pseudotext_no_click,None,seise,,,,,OA07,001,no,1500,2000,145,274,321,2024-08-29_12h35.36.112,EXNAT_3_fMRI_Psychopy2023.1.3,2023.1.3,59.95674393006983,
1,0,1,0,,,,,,,,,,,#88BA3F,886.3895039558411,323.3902189731598,None,None,None,881.5190235435762,pseudo_text_02,50,2,1,2,Reading_pseudotext_no_click,None,Merschub,,,,,OA07,001,no,1500,2000,145,274,321,2024-08-29_12h35.36.112,EXNAT_3_fMRI_Psychopy2023.1.3,2023.1.3,59.95674393006983,
1,0,1,0,,,,,,,,,,,#88BA3F,887.2893421649933,324.290057182312,None,None,None,839.8051230380679,pseudo_text_02,51,2,1,2,Reading_pseudotext_no_click,None,bochen,,,,,OA07,001,no,1500,2000,145,274,321,2024-08-29_12h35.36.112,EXNAT_3_fMRI_Psychopy2023.1.3,2023.1.3,59.95674393006983,
1,0,1,0,,,,,,,,,,,#D292F3,888.1390249729156,325.1397399902344,None,None,None,725.0,pseudo_text_02,52,2,1,2,Reading_pseudotext_no_click,None,zu,,,,,OA07,001,no,1500,2000,145,274,321,2024-08-29_12h35.36.112,EXNAT_3_fMRI_Psychopy2023.1.3,2023.1.3,59.95674393006983,
1,0,1,0,,,,,,,,,,,#88BA3F,888.8727929592133,325.873507976532,None,None,None,862.1569716130205,pseudo_text_02,53,2,1,2,Reading_pseudotext_no_click,None,nöhnen.,,,,,OA07,001,no,1500,2000,145,274,321,2024-08-29_12h35.36.112,EXNAT_3_fMRI_Psychopy2023.1.3,2023.1.3,59.95674393006983,
1,0,1,0,,,,,,,,,,,#F989A2,889.7393159866333,326.740031003952,None,None,None,725.0,pseudo_text_02,54,2,1,2,Reading_pseudotext_no_click,None,In,,,,,OA07,001,no,1500,2000,145,274,321,2024-08-29_12h35.36.112,EXNAT_3_fMRI_Psychopy2023.1.3,2023.1.3,59.95674393006983,
1,0,1,0,,,,,,,,,,,#D292F3,890.4730679988861,327.47378301620483,None,None,None,990.8159348881513,pseudo_text_02,55,2,1,2,Reading_pseudotext_no_click,None,Raubfallogelrufen,,,,,OA07,001,no,1500,2000,145,274,321,2024-08-29_12h35.36.112,EXNAT_3_fMRI_Psychopy2023.1.3,2023.1.3,59.95674393006983,
1,0,1,0,,,,,,,,,,,#2AB7EF,891.4723329544067,328.47304797172546,None,None,None,881.5190235435762,pseudo_text_02,56,2,1,2,Reading_pseudotext_no_click,None,feltweib,,,,,OA07,001,no,1500,2000,145,274,321,2024-08-29_12h35.36.112,EXNAT_3_fMRI_Psychopy2023.1.3,2023.1.3,59.95674393006983,
