DisplayImage	corrAns	ishihara_pics.thisRepN	ishihara_pics.thisTrialN	ishihara_pics.thisN	ishihara_pics.thisIndex	blocks.thisRepN	blocks.thisTrialN	blocks.thisN	blocks.thisIndex	thisRow.t	notes	Settings.started	Settings.stopped	demographics.started	demographics.stopped	demographic_form.index	demographic_form.itemText	demographic_form.type	demographic_form.font	demographic_form.markerColor	demographic_form.response	demographic_form.rt	education.started	education.stopped	edu_form.index	edu_form.itemText	edu_form.type	edu_form.font	edu_form.markerColor	edu_form.response	edu_form.rt	Ishihara.started	Ishihara.stopped	ishihara_number.text	no_text_blocks_self_paced.started	no_text_blocks_self_paced.stopped	text_blocks_self_paced.started	colour	target	nback_response	nback_RT	duration	text_nr	trial_nr	block_nr	block_name	block_kind	word	global_onset_time	question	button_pressed	chosen_ans	ans_correct	block_nr_exp	n-back_level	text_blocks_self_paced.stopped	text_blocks_paced.started	text_blocks_paced.stopped	no_text_blocks_paced.started	no_text_blocks_paced.stopped	pseudotext.started	pseudotext.stopped	curr_0back_target	RT_per_letter_baseline	RT_per_letter_0back	RT_per_letter_1bck	RT_per_letter_2bck	RT_per_rect_1back_single	RT_per_rect_2back_single	end.started	end.stopped	participant	self-paced_blocks	paced_blocks	testing_mode	date	expName	psychopyVersion	expStart	
												0.021201133728027344	0.02150106430053711																																																											OA04	yes	yes	no	2024-08-28_08h04.29.593	EXNAT_3_training	2024.1.0	2024-08-28 08h13.29.847142 +0200	
														0.021519184112548828	53.90618109703064	0.0	Willkommen zum Experiment!	heading	None	None																																																				OA04	yes	yes	no	2024-08-28_08h04.29.593	EXNAT_3_training	2024.1.0	2024-08-28 08h13.29.847142 +0200	
																0.0	Bitte beantworten Sie zunächst die folgenden Fragen:	description	None	None																																																				OA04	yes	yes	no	2024-08-28_08h04.29.593	EXNAT_3_training	2024.1.0	2024-08-28 08h13.29.847142 +0200	
																gender	Welches Geschlecht steht in Ihrem Ausweis?	radio	None	None	Weiblich	20.5350821018219																																																		OA04	yes	yes	no	2024-08-28_08h04.29.593	EXNAT_3_training	2024.1.0	2024-08-28 08h13.29.847142 +0200	
																age	Wie alt sind Sie?	free text	None	None	72	None																																																		OA04	yes	yes	no	2024-08-28_08h04.29.593	EXNAT_3_training	2024.1.0	2024-08-28 08h13.29.847142 +0200	
																language	Ist Deutsch Ihre Muttersprache?	radio	None	None	Ja	30.870986223220825																																																		OA04	yes	yes	no	2024-08-28_08h04.29.593	EXNAT_3_training	2024.1.0	2024-08-28 08h13.29.847142 +0200	
																dyslexia	Haben Sie eine Leseschwäche?	radio	None	None	Nein	48.45678091049194																																																		OA04	yes	yes	no	2024-08-28_08h04.29.593	EXNAT_3_training	2024.1.0	2024-08-28 08h13.29.847142 +0200	
																vision_glasses	Tragen Sie eine Brille?	radio	None	None	Ja	10.958284139633179																																																		OA04	yes	yes	no	2024-08-28_08h04.29.593	EXNAT_3_training	2024.1.0	2024-08-28 08h13.29.847142 +0200	
																vision_lenses	Tragen Sie Kontaktlinsen?	radio	None	None	Nein	11.339838027954102																																																		OA04	yes	yes	no	2024-08-28_08h04.29.593	EXNAT_3_training	2024.1.0	2024-08-28 08h13.29.847142 +0200	
																handedness	Sind Sie rechtshändig?	radio	None	None	Ja	13.521048069000244																																																		OA04	yes	yes	no	2024-08-28_08h04.29.593	EXNAT_3_training	2024.1.0	2024-08-28 08h13.29.847142 +0200	
																																																																								OA04	yes	yes	no	2024-08-28_08h04.29.593	EXNAT_3_training	2024.1.0	2024-08-28 08h13.29.847142 +0200	
																							53.906315088272095	136.26635813713074	0.0	Bitte beantworten Sie die folgenden Fragen zu Ihrer Ausbildung:	description	None	None																																											OA04	yes	yes	no	2024-08-28_08h04.29.593	EXNAT_3_training	2024.1.0	2024-08-28 08h13.29.847142 +0200	
																									education	Was ist Ihr höchster Bildungsabschluss?	radio	None	None	abgeschlossenes Studium	5.417517900466919																																									OA04	yes	yes	no	2024-08-28_08h04.29.593	EXNAT_3_training	2024.1.0	2024-08-28 08h13.29.847142 +0200	
																									edu_intro	Wie viele Jahre verbrachten Sie insgesamt mit:	description	None	None																																											OA04	yes	yes	no	2024-08-28_08h04.29.593	EXNAT_3_training	2024.1.0	2024-08-28 08h13.29.847142 +0200	
																									edu_school_years	Schule	free text	None	None	13	None																																									OA04	yes	yes	no	2024-08-28_08h04.29.593	EXNAT_3_training	2024.1.0	2024-08-28 08h13.29.847142 +0200	
																									edu_eveningschool_years	Abendschule	free text	None	None	0	None																																									OA04	yes	yes	no	2024-08-28_08h04.29.593	EXNAT_3_training	2024.1.0	2024-08-28 08h13.29.847142 +0200	
																									edu_training_years	Ausbildung	free text	None	None	2	None																																									OA04	yes	yes	no	2024-08-28_08h04.29.593	EXNAT_3_training	2024.1.0	2024-08-28 08h13.29.847142 +0200	
																									edu_training_GDR_years	Fachschule	free text	None	None	0	None																																									OA04	yes	yes	no	2024-08-28_08h04.29.593	EXNAT_3_training	2024.1.0	2024-08-28 08h13.29.847142 +0200	
																									edu_uni_years	Universität/Hochschule	free text	None	None	5	None																																									OA04	yes	yes	no	2024-08-28_08h04.29.593	EXNAT_3_training	2024.1.0	2024-08-28 08h13.29.847142 +0200	
																									edu_other_years	Sonstiges	free text	None	None	0	None																																									OA04	yes	yes	no	2024-08-28_08h04.29.593	EXNAT_3_training	2024.1.0	2024-08-28 08h13.29.847142 +0200	
																									edu_profession	Was ist Ihr derzeitiger/letzter Beruf?	free text	None	None	Rechtsanwalt	None																																									OA04	yes	yes	no	2024-08-28_08h04.29.593	EXNAT_3_training	2024.1.0	2024-08-28 08h13.29.847142 +0200	
																																																																								OA04	yes	yes	no	2024-08-28_08h04.29.593	EXNAT_3_training	2024.1.0	2024-08-28 08h13.29.847142 +0200	
																																																																								OA04	yes	yes	no	2024-08-28_08h04.29.593	EXNAT_3_training	2024.1.0	2024-08-28 08h13.29.847142 +0200	
Stimuli_and_Resources/Ishihara_Colour_Vision_Test/ishihara_test5_23.png	23	0	0	0	4					144.19781017303467																						144.14019012451172	149.14015221595764	23																																						OA04	yes	yes	no	2024-08-28_08h04.29.593	EXNAT_3_training	2024.1.0	2024-08-28 08h13.29.847142 +0200	
Stimuli_and_Resources/Ishihara_Colour_Vision_Test/ishihara_test2_17.png	17	0	1	1	1					150.191388130188																						150.1418240070343	154.8512830734253	17																																						OA04	yes	yes	no	2024-08-28_08h04.29.593	EXNAT_3_training	2024.1.0	2024-08-28 08h13.29.847142 +0200	
Stimuli_and_Resources/Ishihara_Colour_Vision_Test/ishihara_test3_21.png	21	0	2	2	2					155.9037730693817																						155.8541431427002	159.39342308044434	21																																						OA04	yes	yes	no	2024-08-28_08h04.29.593	EXNAT_3_training	2024.1.0	2024-08-28 08h13.29.847142 +0200	
Stimuli_and_Resources/Ishihara_Colour_Vision_Test/ishihara_test1_70.png	70	0	3	3	0					160.44596099853516																						160.39680004119873	165.37177801132202	70																																						OA04	yes	yes	no	2024-08-28_08h04.29.593	EXNAT_3_training	2024.1.0	2024-08-28 08h13.29.847142 +0200	
Stimuli_and_Resources/Ishihara_Colour_Vision_Test/ishihara_test6_15.png	15	0	4	4	5					166.42295622825623																						166.37336421012878	170.2144751548767	15																																						OA04	yes	yes	no	2024-08-28_08h04.29.593	EXNAT_3_training	2024.1.0	2024-08-28 08h13.29.847142 +0200	
Stimuli_and_Resources/Ishihara_Colour_Vision_Test/ishihara_test4_78.png	78	0	5	5	3					171.26571607589722																						171.21613907814026	174.45605206489563	78																																						OA04	yes	yes	no	2024-08-28_08h04.29.593	EXNAT_3_training	2024.1.0	2024-08-28 08h13.29.847142 +0200	
						0	0	0	0	175.4741551876068																									175.45806002616882	175.47423100471497	175.47424221038818	#2AB7EF	None	None	None	1500	reading_bl_training_text	1	0	Reading_Baseline_training_click	None	Auf																								OA04	yes	yes	no	2024-08-28_08h04.29.593	EXNAT_3_training	2024.1.0	2024-08-28 08h13.29.847142 +0200	
						0	0	0	0																													#2AB7EF	None	None	None	563.6370182037354	reading_bl_training_text	2	0	Reading_Baseline_training_click	None	dem																								OA04	yes	yes	no	2024-08-28_08h04.29.593	EXNAT_3_training	2024.1.0	2024-08-28 08h13.29.847142 +0200	
						0	0	0	0																													#D292F3	None	None	None	1015.5849456787109	reading_bl_training_text	3	0	Reading_Baseline_training_click	None	großen																								OA04	yes	yes	no	2024-08-28_08h04.29.593	EXNAT_3_training	2024.1.0	2024-08-28 08h13.29.847142 +0200	
						0	0	0	0																													#88BA3F	None	None	None	712.7149105072021	reading_bl_training_text	4	0	Reading_Baseline_training_click	None	"Passagierdampfer,"																								OA04	yes	yes	no	2024-08-28_08h04.29.593	EXNAT_3_training	2024.1.0	2024-08-28 08h13.29.847142 +0200	
						0	0	0	0																													#F989A2	None	None	None	682.729959487915	reading_bl_training_text	5	0	Reading_Baseline_training_click	None	der																								OA04	yes	yes	no	2024-08-28_08h04.29.593	EXNAT_3_training	2024.1.0	2024-08-28 08h13.29.847142 +0200	
						0	0	0	0																													#88BA3F	None	None	None	716.0179615020752	reading_bl_training_text	6	0	Reading_Baseline_training_click	None	um																								OA04	yes	yes	no	2024-08-28_08h04.29.593	EXNAT_3_training	2024.1.0	2024-08-28 08h13.29.847142 +0200	
						0	0	0	0																													#2AB7EF	None	None	None	699.429988861084	reading_bl_training_text	7	0	Reading_Baseline_training_click	None	Mitternacht																								OA04	yes	yes	no	2024-08-28_08h04.29.593	EXNAT_3_training	2024.1.0	2024-08-28 08h13.29.847142 +0200	
						0	0	0	0																													#F989A2	None	None	None	732.0120334625244	reading_bl_training_text	8	0	Reading_Baseline_training_click	None	von																								OA04	yes	yes	no	2024-08-28_08h04.29.593	EXNAT_3_training	2024.1.0	2024-08-28 08h13.29.847142 +0200	
						0	0	0	0																													#D292F3	None	None	None	801.098108291626	reading_bl_training_text	9	0	Reading_Baseline_training_click	None	New																								OA04	yes	yes	no	2024-08-28_08h04.29.593	EXNAT_3_training	2024.1.0	2024-08-28 08h13.29.847142 +0200	
						0	0	0	0																													#D292F3	None	None	None	815.63401222229	reading_bl_training_text	10	0	Reading_Baseline_training_click	None	York																								OA04	yes	yes	no	2024-08-28_08h04.29.593	EXNAT_3_training	2024.1.0	2024-08-28 08h13.29.847142 +0200	
						0	0	0	0																													#F989A2	None	None	None	747.3428249359131	reading_bl_training_text	11	0	Reading_Baseline_training_click	None	nach																								OA04	yes	yes	no	2024-08-28_08h04.29.593	EXNAT_3_training	2024.1.0	2024-08-28 08h13.29.847142 +0200	
						0	0	0	0																													#88BA3F	None	None	None	648.655891418457	reading_bl_training_text	12	0	Reading_Baseline_training_click	None	Buenos																								OA04	yes	yes	no	2024-08-28_08h04.29.593	EXNAT_3_training	2024.1.0	2024-08-28 08h13.29.847142 +0200	
						0	0	0	0																													#2AB7EF	None	None	None	682.5060844421387	reading_bl_training_text	13	0	Reading_Baseline_training_click	None	Aires																								OA04	yes	yes	no	2024-08-28_08h04.29.593	EXNAT_3_training	2024.1.0	2024-08-28 08h13.29.847142 +0200	
						0	0	0	0																													#F989A2	None	None	None	698.5869407653809	reading_bl_training_text	14	0	Reading_Baseline_training_click	None	abgehen																								OA04	yes	yes	no	2024-08-28_08h04.29.593	EXNAT_3_training	2024.1.0	2024-08-28 08h13.29.847142 +0200	
						0	0	0	0																													#88BA3F	None	None	None	731.5719127655029	reading_bl_training_text	15	0	Reading_Baseline_training_click	None	"sollte,"																								OA04	yes	yes	no	2024-08-28_08h04.29.593	EXNAT_3_training	2024.1.0	2024-08-28 08h13.29.847142 +0200	
						0	0	0	0																													#F989A2	None	None	None	983.4330081939697	reading_bl_training_text	16	0	Reading_Baseline_training_click	None	herrschte																								OA04	yes	yes	no	2024-08-28_08h04.29.593	EXNAT_3_training	2024.1.0	2024-08-28 08h13.29.847142 +0200	
						0	0	0	0																													#D292F3	None	None	None	681.7529201507568	reading_bl_training_text	17	0	Reading_Baseline_training_click	None	geschäftiges																								OA04	yes	yes	no	2024-08-28_08h04.29.593	EXNAT_3_training	2024.1.0	2024-08-28 08h13.29.847142 +0200	
						0	0	0	0																													#D292F3	None	None	None	748.3608722686768	reading_bl_training_text	18	0	Reading_Baseline_training_click	None	Treiben.																								OA04	yes	yes	no	2024-08-28_08h04.29.593	EXNAT_3_training	2024.1.0	2024-08-28 08h13.29.847142 +0200	
						0	0	0	0																													#88BA3F	None	None	None	1500	reading_bl_training_text	19	0	Reading_Baseline_training_click	None	Einige																								OA04	yes	yes	no	2024-08-28_08h04.29.593	EXNAT_3_training	2024.1.0	2024-08-28 08h13.29.847142 +0200	
						0	0	0	0																													#2AB7EF	None	None	None	547.8029251098633	reading_bl_training_text	20	0	Reading_Baseline_training_click	None	Reporter																								OA04	yes	yes	no	2024-08-28_08h04.29.593	EXNAT_3_training	2024.1.0	2024-08-28 08h13.29.847142 +0200	
						0	0	0	0																													#88BA3F	None	None	None	998.560905456543	reading_bl_training_text	21	0	Reading_Baseline_training_click	None	interviewten																								OA04	yes	yes	no	2024-08-28_08h04.29.593	EXNAT_3_training	2024.1.0	2024-08-28 08h13.29.847142 +0200	
						0	0	0	0																													#F989A2	None	None	None	766.185998916626	reading_bl_training_text	22	0	Reading_Baseline_training_click	None	den																								OA04	yes	yes	no	2024-08-28_08h04.29.593	EXNAT_3_training	2024.1.0	2024-08-28 08h13.29.847142 +0200	
						0	0	0	0																													#F989A2	None	None	None	716.5169715881348	reading_bl_training_text	23	0	Reading_Baseline_training_click	None	berühmten																								OA04	yes	yes	no	2024-08-28_08h04.29.593	EXNAT_3_training	2024.1.0	2024-08-28 08h13.29.847142 +0200	
						0	0	0	0																													#D292F3	None	None	None	1132.4350833892822	reading_bl_training_text	24	0	Reading_Baseline_training_click	None	Weltschachmeister																								OA04	yes	yes	no	2024-08-28_08h04.29.593	EXNAT_3_training	2024.1.0	2024-08-28 08h13.29.847142 +0200	
						0	0	0	0																													#D292F3	None	None	None	649.1379737854004	reading_bl_training_text	25	0	Reading_Baseline_training_click	None	Mirko																								OA04	yes	yes	no	2024-08-28_08h04.29.593	EXNAT_3_training	2024.1.0	2024-08-28 08h13.29.847142 +0200	
						0	0	0	0																													#2AB7EF	None	None	None	798.6280918121338	reading_bl_training_text	26	0	Reading_Baseline_training_click	None	"Czentovic,"																								OA04	yes	yes	no	2024-08-28_08h04.29.593	EXNAT_3_training	2024.1.0	2024-08-28 08h13.29.847142 +0200	
						0	0	0	0																													#F989A2	None	None	None	766.1969661712646	reading_bl_training_text	27	0	Reading_Baseline_training_click	None	der																								OA04	yes	yes	no	2024-08-28_08h04.29.593	EXNAT_3_training	2024.1.0	2024-08-28 08h13.29.847142 +0200	
						0	0	0	0																													#88BA3F	None	None	None	665.3790473937988	reading_bl_training_text	28	0	Reading_Baseline_training_click	None	nach																								OA04	yes	yes	no	2024-08-28_08h04.29.593	EXNAT_3_training	2024.1.0	2024-08-28 08h13.29.847142 +0200	
						0	0	0	0																													#D292F3	None	None	None	699.6369361877441	reading_bl_training_text	29	0	Reading_Baseline_training_click	None	Argentinien																								OA04	yes	yes	no	2024-08-28_08h04.29.593	EXNAT_3_training	2024.1.0	2024-08-28 08h13.29.847142 +0200	
						0	0	0	0																													#88BA3F	None	None	None	1033.0288410186768	reading_bl_training_text	30	0	Reading_Baseline_training_click	None	reiste.																								OA04	yes	yes	no	2024-08-28_08h04.29.593	EXNAT_3_training	2024.1.0	2024-08-28 08h13.29.847142 +0200	
						0	0	0	0																																		reading_bl_training_text			Reading_Baseline_training_click			228.09583616256714	Q1	2	b	False	1	None																	OA04	yes	yes	no	2024-08-28_08h04.29.593	EXNAT_3_training	2024.1.0	2024-08-28 08h13.29.847142 +0200	
						0	0	0	0																																		reading_bl_training_text			Reading_Baseline_training_click			228.69303703308105	Q2	3	c	True	1	None																	OA04	yes	yes	no	2024-08-28_08h04.29.593	EXNAT_3_training	2024.1.0	2024-08-28 08h13.29.847142 +0200	
						0	0	0	0																																		reading_bl_training_text			Reading_Baseline_training_click			234.70602703094482	Q3	1	a	True	1	None																	OA04	yes	yes	no	2024-08-28_08h04.29.593	EXNAT_3_training	2024.1.0	2024-08-28 08h13.29.847142 +0200	
						0	0	0	0																																															239.09983921051025	239.09986019134521	239.14014601707458	239.14015913009644	239.14990520477295	239.1499171257019	239.1663851737976										OA04	yes	yes	no	2024-08-28_08h04.29.593	EXNAT_3_training	2024.1.0	2024-08-28 08h13.29.847142 +0200	
						1	0	1	0	239.18264412879944																									239.16670513153076	239.182687997818	239.18269515037537	#88BA3F	None	None	None	1500	text_04	1	1	Reading_Baseline_main_click	None	Manche																								OA04	yes	yes	no	2024-08-28_08h04.29.593	EXNAT_3_training	2024.1.0	2024-08-28 08h13.29.847142 +0200	
						1	0	1	0																													#F989A2	None	None	None	1500	text_04	2	1	Reading_Baseline_main_click	None	Orte																								OA04	yes	yes	no	2024-08-28_08h04.29.593	EXNAT_3_training	2024.1.0	2024-08-28 08h13.29.847142 +0200	
						1	0	1	0																													#F989A2	None	None	None	1500	text_04	3	1	Reading_Baseline_main_click	None	sind																								OA04	yes	yes	no	2024-08-28_08h04.29.593	EXNAT_3_training	2024.1.0	2024-08-28 08h13.29.847142 +0200	
						1	0	1	0																													#88BA3F	None	None	None	1500	text_04	4	1	Reading_Baseline_main_click	None	nur																								OA04	yes	yes	no	2024-08-28_08h04.29.593	EXNAT_3_training	2024.1.0	2024-08-28 08h13.29.847142 +0200	
						1	0	1	0																													#2AB7EF	None	None	None	1500	text_04	5	1	Reading_Baseline_main_click	None	aus																								OA04	yes	yes	no	2024-08-28_08h04.29.593	EXNAT_3_training	2024.1.0	2024-08-28 08h13.29.847142 +0200	
						1	0	1	0																													#88BA3F	None	None	None	799.4039058685303	text_04	6	1	Reading_Baseline_main_click	None	der																								OA04	yes	yes	no	2024-08-28_08h04.29.593	EXNAT_3_training	2024.1.0	2024-08-28 08h13.29.847142 +0200	
						1	0	1	0																													#D292F3	None	None	None	1249.143123626709	text_04	7	1	Reading_Baseline_main_click	None	Luft																								OA04	yes	yes	no	2024-08-28_08h04.29.593	EXNAT_3_training	2024.1.0	2024-08-28 08h13.29.847142 +0200	
						1	0	1	0																													#F989A2	None	None	None	1249.1989135742188	text_04	8	1	Reading_Baseline_main_click	None	wirklich																								OA04	yes	yes	no	2024-08-28_08h04.29.593	EXNAT_3_training	2024.1.0	2024-08-28 08h13.29.847142 +0200	
						1	0	1	0																													#2AB7EF	None	None	None	680.9940338134766	text_04	9	1	Reading_Baseline_main_click	None	zugänglich.																								OA04	yes	yes	no	2024-08-28_08h04.29.593	EXNAT_3_training	2024.1.0	2024-08-28 08h13.29.847142 +0200	
						1	0	1	0																													#2AB7EF	None	None	None	614.6011352539062	text_04	10	1	Reading_Baseline_main_click	None	Bertus																								OA04	yes	yes	no	2024-08-28_08h04.29.593	EXNAT_3_training	2024.1.0	2024-08-28 08h13.29.847142 +0200	
						1	0	1	0																													#D292F3	None	None	None	681.6558837890625	text_04	11	1	Reading_Baseline_main_click	None	Schoeman																								OA04	yes	yes	no	2024-08-28_08h04.29.593	EXNAT_3_training	2024.1.0	2024-08-28 08h13.29.847142 +0200	
						1	0	1	0																													#D292F3	None	None	None	749.2530345916748	text_04	12	1	Reading_Baseline_main_click	None	fliegt																								OA04	yes	yes	no	2024-08-28_08h04.29.593	EXNAT_3_training	2024.1.0	2024-08-28 08h13.29.847142 +0200	
						1	0	1	0																													#2AB7EF	None	None	None	732.7568531036377	text_04	13	1	Reading_Baseline_main_click	None	oft																								OA04	yes	yes	no	2024-08-28_08h04.29.593	EXNAT_3_training	2024.1.0	2024-08-28 08h13.29.847142 +0200	
						1	0	1	0																													#D292F3	None	None	None	649.7600078582764	text_04	14	1	Reading_Baseline_main_click	None	mit																								OA04	yes	yes	no	2024-08-28_08h04.29.593	EXNAT_3_training	2024.1.0	2024-08-28 08h13.29.847142 +0200	
						1	0	1	0																													#88BA3F	None	None	None	582.2939872741699	text_04	15	1	Reading_Baseline_main_click	None	seinem																								OA04	yes	yes	no	2024-08-28_08h04.29.593	EXNAT_3_training	2024.1.0	2024-08-28 08h13.29.847142 +0200	
						1	0	1	0																													#F989A2	None	None	None	598.1161594390869	text_04	16	1	Reading_Baseline_main_click	None	Flugzeug																								OA04	yes	yes	no	2024-08-28_08h04.29.593	EXNAT_3_training	2024.1.0	2024-08-28 08h13.29.847142 +0200	
						1	0	1	0																													#2AB7EF	None	None	None	615.0519847869873	text_04	17	1	Reading_Baseline_main_click	None	über																								OA04	yes	yes	no	2024-08-28_08h04.29.593	EXNAT_3_training	2024.1.0	2024-08-28 08h13.29.847142 +0200	
						1	0	1	0																													#88BA3F	None	None	None	582.4398994445801	text_04	18	1	Reading_Baseline_main_click	None	die																								OA04	yes	yes	no	2024-08-28_08h04.29.593	EXNAT_3_training	2024.1.0	2024-08-28 08h13.29.847142 +0200	
						1	0	1	0																													#88BA3F	None	None	None	664.6280288696289	text_04	19	1	Reading_Baseline_main_click	None	"unwirtliche,"																								OA04	yes	yes	no	2024-08-28_08h04.29.593	EXNAT_3_training	2024.1.0	2024-08-28 08h13.29.847142 +0200	
						1	0	1	0																													#F989A2	None	None	None	615.6139373779297	text_04	20	1	Reading_Baseline_main_click	None	aber																								OA04	yes	yes	no	2024-08-28_08h04.29.593	EXNAT_3_training	2024.1.0	2024-08-28 08h13.29.847142 +0200	
						1	0	1	0																													#2AB7EF	None	None	None	582.6961994171143	text_04	21	1	Reading_Baseline_main_click	None	trotzdem																								OA04	yes	yes	no	2024-08-28_08h04.29.593	EXNAT_3_training	2024.1.0	2024-08-28 08h13.29.847142 +0200	
						1	0	1	0																													#88BA3F	None	None	None	614.6290302276611	text_04	22	1	Reading_Baseline_main_click	None	wunderschöne																								OA04	yes	yes	no	2024-08-28_08h04.29.593	EXNAT_3_training	2024.1.0	2024-08-28 08h13.29.847142 +0200	
						1	0	1	0																													#D292F3	None	None	None	798.3260154724121	text_04	23	1	Reading_Baseline_main_click	None	Küste																								OA04	yes	yes	no	2024-08-28_08h04.29.593	EXNAT_3_training	2024.1.0	2024-08-28 08h13.29.847142 +0200	
						1	0	1	0																													#F989A2	None	None	None	647.9718685150146	text_04	24	1	Reading_Baseline_main_click	None	Namibias.																								OA04	yes	yes	no	2024-08-28_08h04.29.593	EXNAT_3_training	2024.1.0	2024-08-28 08h13.29.847142 +0200	
						1	0	1	0																													#F989A2	None	None	None	631.9808959960938	text_04	25	1	Reading_Baseline_main_click	None	Er																								OA04	yes	yes	no	2024-08-28_08h04.29.593	EXNAT_3_training	2024.1.0	2024-08-28 08h13.29.847142 +0200	
						1	0	1	0																													#2AB7EF	None	None	None	565.4568672180176	text_04	26	1	Reading_Baseline_main_click	None	zeigt																								OA04	yes	yes	no	2024-08-28_08h04.29.593	EXNAT_3_training	2024.1.0	2024-08-28 08h13.29.847142 +0200	
						1	0	1	0																													#D292F3	None	None	None	598.2060432434082	text_04	27	1	Reading_Baseline_main_click	None	Touristen																								OA04	yes	yes	no	2024-08-28_08h04.29.593	EXNAT_3_training	2024.1.0	2024-08-28 08h13.29.847142 +0200	
						1	0	1	0																													#D292F3	None	None	None	582.2780132293701	text_04	28	1	Reading_Baseline_main_click	None	die																								OA04	yes	yes	no	2024-08-28_08h04.29.593	EXNAT_3_training	2024.1.0	2024-08-28 08h13.29.847142 +0200	
						1	0	1	0																													#88BA3F	None	None	None	598.3409881591797	text_04	29	1	Reading_Baseline_main_click	None	beeindruckenden																								OA04	yes	yes	no	2024-08-28_08h04.29.593	EXNAT_3_training	2024.1.0	2024-08-28 08h13.29.847142 +0200	
						1	0	1	0																													#2AB7EF	None	None	None	648.8149166107178	text_04	30	1	Reading_Baseline_main_click	None	Schiffswracks																								OA04	yes	yes	no	2024-08-28_08h04.29.593	EXNAT_3_training	2024.1.0	2024-08-28 08h13.29.847142 +0200	
						1	0	1	0																													#F989A2	None	None	None	615.7000064849854	text_04	31	1	Reading_Baseline_main_click	None	und																								OA04	yes	yes	no	2024-08-28_08h04.29.593	EXNAT_3_training	2024.1.0	2024-08-28 08h13.29.847142 +0200	
						1	0	1	0																													#2AB7EF	None	None	None	582.4081897735596	text_04	32	1	Reading_Baseline_main_click	None	die																								OA04	yes	yes	no	2024-08-28_08h04.29.593	EXNAT_3_training	2024.1.0	2024-08-28 08h13.29.847142 +0200	
						1	0	1	0																													#88BA3F	None	None	None	598.3808040618896	text_04	33	1	Reading_Baseline_main_click	None	einzigartigen																								OA04	yes	yes	no	2024-08-28_08h04.29.593	EXNAT_3_training	2024.1.0	2024-08-28 08h13.29.847142 +0200	
						1	0	1	0																													#F989A2	None	None	None	598.7198352813721	text_04	34	1	Reading_Baseline_main_click	None	Landschaften																								OA04	yes	yes	no	2024-08-28_08h04.29.593	EXNAT_3_training	2024.1.0	2024-08-28 08h13.29.847142 +0200	
						1	0	1	0																													#88BA3F	None	None	None	581.8428993225098	text_04	35	1	Reading_Baseline_main_click	None	von																								OA04	yes	yes	no	2024-08-28_08h04.29.593	EXNAT_3_training	2024.1.0	2024-08-28 08h13.29.847142 +0200	
						1	0	1	0																													#D292F3	None	None	None	565.3548240661621	text_04	36	1	Reading_Baseline_main_click	None	oben.																								OA04	yes	yes	no	2024-08-28_08h04.29.593	EXNAT_3_training	2024.1.0	2024-08-28 08h13.29.847142 +0200	
						1	0	1	0																													#2AB7EF	None	None	None	598.5338687896729	text_04	37	1	Reading_Baseline_main_click	None	Vom																								OA04	yes	yes	no	2024-08-28_08h04.29.593	EXNAT_3_training	2024.1.0	2024-08-28 08h13.29.847142 +0200	
						1	0	1	0																													#2AB7EF	None	None	None	632.3990821838379	text_04	38	1	Reading_Baseline_main_click	None	Flugzeug																								OA04	yes	yes	no	2024-08-28_08h04.29.593	EXNAT_3_training	2024.1.0	2024-08-28 08h13.29.847142 +0200	
						1	0	1	0																													#F989A2	None	None	None	581.8889141082764	text_04	39	1	Reading_Baseline_main_click	None	aus																								OA04	yes	yes	no	2024-08-28_08h04.29.593	EXNAT_3_training	2024.1.0	2024-08-28 08h13.29.847142 +0200	
						1	0	1	0																													#F989A2	None	None	None	565.532922744751	text_04	40	1	Reading_Baseline_main_click	None	sieht																								OA04	yes	yes	no	2024-08-28_08h04.29.593	EXNAT_3_training	2024.1.0	2024-08-28 08h13.29.847142 +0200	
						1	0	1	0																													#F989A2	None	None	None	565.6208992004395	text_04	41	1	Reading_Baseline_main_click	None	man																								OA04	yes	yes	no	2024-08-28_08h04.29.593	EXNAT_3_training	2024.1.0	2024-08-28 08h13.29.847142 +0200	
						1	0	1	0																													#88BA3F	None	None	None	582.4120044708252	text_04	42	1	Reading_Baseline_main_click	None	die																								OA04	yes	yes	no	2024-08-28_08h04.29.593	EXNAT_3_training	2024.1.0	2024-08-28 08h13.29.847142 +0200	
						1	0	1	0																													#D292F3	None	None	None	632.2500705718994	text_04	43	1	Reading_Baseline_main_click	None	Küste																								OA04	yes	yes	no	2024-08-28_08h04.29.593	EXNAT_3_training	2024.1.0	2024-08-28 08h13.29.847142 +0200	
						1	0	1	0																													#88BA3F	None	None	None	565.532922744751	text_04	44	1	Reading_Baseline_main_click	None	des																								OA04	yes	yes	no	2024-08-28_08h04.29.593	EXNAT_3_training	2024.1.0	2024-08-28 08h13.29.847142 +0200	
						1	0	1	0																													#2AB7EF	None	None	None	582.0229053497314	text_04	45	1	Reading_Baseline_main_click	None	"Landes,"																								OA04	yes	yes	no	2024-08-28_08h04.29.593	EXNAT_3_training	2024.1.0	2024-08-28 08h13.29.847142 +0200	
						1	0	1	0																													#88BA3F	None	None	None	565.6750202178955	text_04	46	1	Reading_Baseline_main_click	None	die																								OA04	yes	yes	no	2024-08-28_08h04.29.593	EXNAT_3_training	2024.1.0	2024-08-28 08h13.29.847142 +0200	
						1	0	1	0																													#D292F3	None	None	None	665.7619476318359	text_04	47	1	Reading_Baseline_main_click	None	sich																								OA04	yes	yes	no	2024-08-28_08h04.29.593	EXNAT_3_training	2024.1.0	2024-08-28 08h13.29.847142 +0200	
						1	0	1	0																													#88BA3F	None	None	None	581.730842590332	text_04	48	1	Reading_Baseline_main_click	None	von																								OA04	yes	yes	no	2024-08-28_08h04.29.593	EXNAT_3_training	2024.1.0	2024-08-28 08h13.29.847142 +0200	
						1	0	1	0																													#2AB7EF	None	None	None	882.6358318328857	text_04	49	1	Reading_Baseline_main_click	None	Südafrika																								OA04	yes	yes	no	2024-08-28_08h04.29.593	EXNAT_3_training	2024.1.0	2024-08-28 08h13.29.847142 +0200	
						1	0	1	0																													#F989A2	None	None	None	582.1459293365479	text_04	50	1	Reading_Baseline_main_click	None	bis																								OA04	yes	yes	no	2024-08-28_08h04.29.593	EXNAT_3_training	2024.1.0	2024-08-28 08h13.29.847142 +0200	
						1	0	1	0																													#D292F3	None	None	None	582.3612213134766	text_04	51	1	Reading_Baseline_main_click	None	nach																								OA04	yes	yes	no	2024-08-28_08h04.29.593	EXNAT_3_training	2024.1.0	2024-08-28 08h13.29.847142 +0200	
						1	0	1	0																													#D292F3	None	None	None	615.0338649749756	text_04	52	1	Reading_Baseline_main_click	None	Angola																								OA04	yes	yes	no	2024-08-28_08h04.29.593	EXNAT_3_training	2024.1.0	2024-08-28 08h13.29.847142 +0200	
						1	0	1	0																													#88BA3F	None	None	None	649.4247913360596	text_04	53	1	Reading_Baseline_main_click	None	erstreckt.																								OA04	yes	yes	no	2024-08-28_08h04.29.593	EXNAT_3_training	2024.1.0	2024-08-28 08h13.29.847142 +0200	
						1	0	1	0																													#2AB7EF	None	None	None	531.8570137023926	text_04	54	1	Reading_Baseline_main_click	None	Auch																								OA04	yes	yes	no	2024-08-28_08h04.29.593	EXNAT_3_training	2024.1.0	2024-08-28 08h13.29.847142 +0200	
						1	0	1	0																													#F989A2	None	None	None	581.0999870300293	text_04	55	1	Reading_Baseline_main_click	None	verschiedene																								OA04	yes	yes	no	2024-08-28_08h04.29.593	EXNAT_3_training	2024.1.0	2024-08-28 08h13.29.847142 +0200	
						1	0	1	0																													#D292F3	None	None	None	598.2589721679688	text_04	56	1	Reading_Baseline_main_click	None	"Tiere,"																								OA04	yes	yes	no	2024-08-28_08h04.29.593	EXNAT_3_training	2024.1.0	2024-08-28 08h13.29.847142 +0200	
						1	0	1	0																													#2AB7EF	None	None	None	565.6580924987793	text_04	57	1	Reading_Baseline_main_click	None	wie																								OA04	yes	yes	no	2024-08-28_08h04.29.593	EXNAT_3_training	2024.1.0	2024-08-28 08h13.29.847142 +0200	
						1	0	1	0																													#F989A2	None	None	None	599.12109375	text_04	58	1	Reading_Baseline_main_click	None	die																								OA04	yes	yes	no	2024-08-28_08h04.29.593	EXNAT_3_training	2024.1.0	2024-08-28 08h13.29.847142 +0200	
						1	0	1	0																													#F989A2	None	None	None	565.2279853820801	text_04	59	1	Reading_Baseline_main_click	None	berühmten																								OA04	yes	yes	no	2024-08-28_08h04.29.593	EXNAT_3_training	2024.1.0	2024-08-28 08h13.29.847142 +0200	
						1	0	1	0																													#88BA3F	None	None	None	616.0678863525391	text_04	60	1	Reading_Baseline_main_click	None	Flamingos																								OA04	yes	yes	no	2024-08-28_08h04.29.593	EXNAT_3_training	2024.1.0	2024-08-28 08h13.29.847142 +0200	
						1	0	1	0																													#D292F3	None	None	None	498.19111824035645	text_04	61	1	Reading_Baseline_main_click	None	von																								OA04	yes	yes	no	2024-08-28_08h04.29.593	EXNAT_3_training	2024.1.0	2024-08-28 08h13.29.847142 +0200	
						1	0	1	0																													#88BA3F	None	None	None	648.2980251312256	text_04	62	1	Reading_Baseline_main_click	None	Conception																								OA04	yes	yes	no	2024-08-28_08h04.29.593	EXNAT_3_training	2024.1.0	2024-08-28 08h13.29.847142 +0200	
						1	0	1	0																													#2AB7EF	None	None	None	531.2180519104004	text_04	63	1	Reading_Baseline_main_click	None	Bay																								OA04	yes	yes	no	2024-08-28_08h04.29.593	EXNAT_3_training	2024.1.0	2024-08-28 08h13.29.847142 +0200	
						1	0	1	0																													#2AB7EF	None	None	None	532.2918891906738	text_04	64	1	Reading_Baseline_main_click	None	und																								OA04	yes	yes	no	2024-08-28_08h04.29.593	EXNAT_3_training	2024.1.0	2024-08-28 08h13.29.847142 +0200	
						1	0	1	0																													#88BA3F	None	None	None	615.7839298248291	text_04	65	1	Reading_Baseline_main_click	None	die																								OA04	yes	yes	no	2024-08-28_08h04.29.593	EXNAT_3_training	2024.1.0	2024-08-28 08h13.29.847142 +0200	
						1	0	1	0																													#F989A2	None	None	None	648.2222080230713	text_04	66	1	Reading_Baseline_main_click	None	Robbenkolonien																								OA04	yes	yes	no	2024-08-28_08h04.29.593	EXNAT_3_training	2024.1.0	2024-08-28 08h13.29.847142 +0200	
						1	0	1	0																													#88BA3F	None	None	None	532.5980186462402	text_04	67	1	Reading_Baseline_main_click	None	von																								OA04	yes	yes	no	2024-08-28_08h04.29.593	EXNAT_3_training	2024.1.0	2024-08-28 08h13.29.847142 +0200	
						1	0	1	0																													#2AB7EF	None	None	None	615.0429248809814	text_04	68	1	Reading_Baseline_main_click	None	Cape																								OA04	yes	yes	no	2024-08-28_08h04.29.593	EXNAT_3_training	2024.1.0	2024-08-28 08h13.29.847142 +0200	
						1	0	1	0																													#D292F3	None	None	None	564.9309158325195	text_04	69	1	Reading_Baseline_main_click	None	Cross																								OA04	yes	yes	no	2024-08-28_08h04.29.593	EXNAT_3_training	2024.1.0	2024-08-28 08h13.29.847142 +0200	
						1	0	1	0																													#D292F3	None	None	None	599.017858505249	text_04	70	1	Reading_Baseline_main_click	None	kann																								OA04	yes	yes	no	2024-08-28_08h04.29.593	EXNAT_3_training	2024.1.0	2024-08-28 08h13.29.847142 +0200	
						1	0	1	0																													#F989A2	None	None	None	565.6819343566895	text_04	71	1	Reading_Baseline_main_click	None	man																								OA04	yes	yes	no	2024-08-28_08h04.29.593	EXNAT_3_training	2024.1.0	2024-08-28 08h13.29.847142 +0200	
						1	0	1	0																													#F989A2	None	None	None	582.9370021820068	text_04	72	1	Reading_Baseline_main_click	None	aus																								OA04	yes	yes	no	2024-08-28_08h04.29.593	EXNAT_3_training	2024.1.0	2024-08-28 08h13.29.847142 +0200	
						1	0	1	0																													#D292F3	None	None	None	565.1860237121582	text_04	73	1	Reading_Baseline_main_click	None	der																								OA04	yes	yes	no	2024-08-28_08h04.29.593	EXNAT_3_training	2024.1.0	2024-08-28 08h13.29.847142 +0200	
						1	0	1	0																													#88BA3F	None	None	None	615.4210567474365	text_04	74	1	Reading_Baseline_main_click	None	Vogelperspektive																								OA04	yes	yes	no	2024-08-28_08h04.29.593	EXNAT_3_training	2024.1.0	2024-08-28 08h13.29.847142 +0200	
						1	0	1	0																													#2AB7EF	None	None	None	548.3889579772949	text_04	75	1	Reading_Baseline_main_click	None	sehen.																								OA04	yes	yes	no	2024-08-28_08h04.29.593	EXNAT_3_training	2024.1.0	2024-08-28 08h13.29.847142 +0200	
						1	0	1	0																													#D292F3	None	None	None	581.9048881530762	text_04	76	1	Reading_Baseline_main_click	None	Diese																								OA04	yes	yes	no	2024-08-28_08h04.29.593	EXNAT_3_training	2024.1.0	2024-08-28 08h13.29.847142 +0200	
						1	0	1	0																													#88BA3F	None	None	None	581.679105758667	text_04	77	1	Reading_Baseline_main_click	None	Safari																								OA04	yes	yes	no	2024-08-28_08h04.29.593	EXNAT_3_training	2024.1.0	2024-08-28 08h13.29.847142 +0200	
						1	0	1	0																													#F989A2	None	None	None	648.9620208740234	text_04	78	1	Reading_Baseline_main_click	None	in																								OA04	yes	yes	no	2024-08-28_08h04.29.593	EXNAT_3_training	2024.1.0	2024-08-28 08h13.29.847142 +0200	
						1	0	1	0																													#2AB7EF	None	None	None	548.271894454956	text_04	79	1	Reading_Baseline_main_click	None	der																								OA04	yes	yes	no	2024-08-28_08h04.29.593	EXNAT_3_training	2024.1.0	2024-08-28 08h13.29.847142 +0200	
						1	0	1	0																													#F989A2	None	None	None	615.7810688018799	text_04	80	1	Reading_Baseline_main_click	None	Luft																								OA04	yes	yes	no	2024-08-28_08h04.29.593	EXNAT_3_training	2024.1.0	2024-08-28 08h13.29.847142 +0200	
						1	0	1	0																													#2AB7EF	None	None	None	632.6339244842529	text_04	81	1	Reading_Baseline_main_click	None	bietet																								OA04	yes	yes	no	2024-08-28_08h04.29.593	EXNAT_3_training	2024.1.0	2024-08-28 08h13.29.847142 +0200	
						1	0	1	0																													#88BA3F	None	None	None	631.5250396728516	text_04	82	1	Reading_Baseline_main_click	None	Touristen																								OA04	yes	yes	no	2024-08-28_08h04.29.593	EXNAT_3_training	2024.1.0	2024-08-28 08h13.29.847142 +0200	
						1	0	1	0																													#F989A2	None	None	None	598.9689826965332	text_04	83	1	Reading_Baseline_main_click	None	einen																								OA04	yes	yes	no	2024-08-28_08h04.29.593	EXNAT_3_training	2024.1.0	2024-08-28 08h13.29.847142 +0200	
						1	0	1	0																													#88BA3F	None	None	None	599.3130207061768	text_04	84	1	Reading_Baseline_main_click	None	einzigartigen																								OA04	yes	yes	no	2024-08-28_08h04.29.593	EXNAT_3_training	2024.1.0	2024-08-28 08h13.29.847142 +0200	
						1	0	1	0																													#88BA3F	None	None	None	565.2220249176025	text_04	85	1	Reading_Baseline_main_click	None	Blick																								OA04	yes	yes	no	2024-08-28_08h04.29.593	EXNAT_3_training	2024.1.0	2024-08-28 08h13.29.847142 +0200	
						1	0	1	0																													#F989A2	None	None	None	599.1508960723877	text_04	86	1	Reading_Baseline_main_click	None	auf																								OA04	yes	yes	no	2024-08-28_08h04.29.593	EXNAT_3_training	2024.1.0	2024-08-28 08h13.29.847142 +0200	
						1	0	1	0																													#D292F3	None	None	None	831.8929672241211	text_04	87	1	Reading_Baseline_main_click	None	Namibias																								OA04	yes	yes	no	2024-08-28_08h04.29.593	EXNAT_3_training	2024.1.0	2024-08-28 08h13.29.847142 +0200	
						1	0	1	0																													#2AB7EF	None	None	None	549.6358871459961	text_04	88	1	Reading_Baseline_main_click	None	raue																								OA04	yes	yes	no	2024-08-28_08h04.29.593	EXNAT_3_training	2024.1.0	2024-08-28 08h13.29.847142 +0200	
						1	0	1	0																													#88BA3F	None	None	None	581.9129943847656	text_04	89	1	Reading_Baseline_main_click	None	und																								OA04	yes	yes	no	2024-08-28_08h04.29.593	EXNAT_3_training	2024.1.0	2024-08-28 08h13.29.847142 +0200	
						1	0	1	0																													#D292F3	None	None	None	598.8991260528564	text_04	90	1	Reading_Baseline_main_click	None	faszinierende																								OA04	yes	yes	no	2024-08-28_08h04.29.593	EXNAT_3_training	2024.1.0	2024-08-28 08h13.29.847142 +0200	
						1	0	1	0																													#F989A2	None	None	None	582.4880599975586	text_04	91	1	Reading_Baseline_main_click	None	Schönheit.																								OA04	yes	yes	no	2024-08-28_08h04.29.593	EXNAT_3_training	2024.1.0	2024-08-28 08h13.29.847142 +0200	
						1	0	1	0																																		text_04			Reading_Baseline_main_click			314.7561399936676	Q1	3	c	True	2	None																	OA04	yes	yes	no	2024-08-28_08h04.29.593	EXNAT_3_training	2024.1.0	2024-08-28 08h13.29.847142 +0200	
						1	0	1	0																																		text_04			Reading_Baseline_main_click			318.552365064621	Q2	2	b	False	2	None																	OA04	yes	yes	no	2024-08-28_08h04.29.593	EXNAT_3_training	2024.1.0	2024-08-28 08h13.29.847142 +0200	
						1	0	1	0																																		text_04			Reading_Baseline_main_click			326.03292202949524	Q3	1	a	True	2	None																	OA04	yes	yes	no	2024-08-28_08h04.29.593	EXNAT_3_training	2024.1.0	2024-08-28 08h13.29.847142 +0200	
						1	0	1	0																																															330.19499921798706	330.1950190067291	330.2347981929779	330.2348132133484	330.2437160015106	330.2437250614166	330.26232409477234										OA04	yes	yes	no	2024-08-28_08h04.29.593	EXNAT_3_training	2024.1.0	2024-08-28 08h13.29.847142 +0200	
						2	0	2	0	330.27706599235535																									330.26264119148254			#2AB7EF	False	correct rejection	None	1500		1	2	0back_single_training	0																#88BA3F									OA04	yes	yes	no	2024-08-28_08h04.29.593	EXNAT_3_training	2024.1.0	2024-08-28 08h13.29.847142 +0200	
						2	0	2	0																													#F989A2	False	correct rejection	None	1500		2	2	0back_single_training	0																#88BA3F									OA04	yes	yes	no	2024-08-28_08h04.29.593	EXNAT_3_training	2024.1.0	2024-08-28 08h13.29.847142 +0200	
						2	0	2	0																													#F989A2	False	correct rejection	None	1500		3	2	0back_single_training	0																#88BA3F									OA04	yes	yes	no	2024-08-28_08h04.29.593	EXNAT_3_training	2024.1.0	2024-08-28 08h13.29.847142 +0200	
						2	0	2	0																													#F989A2	False	correct rejection	None	1500		4	2	0back_single_training	0																#88BA3F									OA04	yes	yes	no	2024-08-28_08h04.29.593	EXNAT_3_training	2024.1.0	2024-08-28 08h13.29.847142 +0200	
						2	0	2	0																													#88BA3F	True	miss	None	1500		5	2	0back_single_training	0																#88BA3F									OA04	yes	yes	no	2024-08-28_08h04.29.593	EXNAT_3_training	2024.1.0	2024-08-28 08h13.29.847142 +0200	
						2	0	2	0																													#2AB7EF	False	correct rejection	None	967.7140712738037		6	2	0back_single_training	0																#88BA3F									OA04	yes	yes	no	2024-08-28_08h04.29.593	EXNAT_3_training	2024.1.0	2024-08-28 08h13.29.847142 +0200	
						2	0	2	0																													#2AB7EF	False	correct rejection	None	1500		7	2	0back_single_training	0																#88BA3F									OA04	yes	yes	no	2024-08-28_08h04.29.593	EXNAT_3_training	2024.1.0	2024-08-28 08h13.29.847142 +0200	
						2	0	2	0																													#D292F3	False	correct rejection	None	1500		8	2	0back_single_training	0																#88BA3F									OA04	yes	yes	no	2024-08-28_08h04.29.593	EXNAT_3_training	2024.1.0	2024-08-28 08h13.29.847142 +0200	
						2	0	2	0																													#2AB7EF	False	correct rejection	None	1500		9	2	0back_single_training	0																#88BA3F									OA04	yes	yes	no	2024-08-28_08h04.29.593	EXNAT_3_training	2024.1.0	2024-08-28 08h13.29.847142 +0200	
						2	0	2	0																													#88BA3F	True	hit	550.2200126647949	1500		10	2	0back_single_training	0																#88BA3F									OA04	yes	yes	no	2024-08-28_08h04.29.593	EXNAT_3_training	2024.1.0	2024-08-28 08h13.29.847142 +0200	
						2	0	2	0																													#88BA3F	True	hit	466.702938079834	1500		11	2	0back_single_training	0																#88BA3F									OA04	yes	yes	no	2024-08-28_08h04.29.593	EXNAT_3_training	2024.1.0	2024-08-28 08h13.29.847142 +0200	
						2	0	2	0																													#D292F3	False	correct rejection	None	1500		12	2	0back_single_training	0																#88BA3F									OA04	yes	yes	no	2024-08-28_08h04.29.593	EXNAT_3_training	2024.1.0	2024-08-28 08h13.29.847142 +0200	
						2	0	2	0																													#2AB7EF	False	correct rejection	None	1500		13	2	0back_single_training	0																#88BA3F									OA04	yes	yes	no	2024-08-28_08h04.29.593	EXNAT_3_training	2024.1.0	2024-08-28 08h13.29.847142 +0200	
						2	0	2	0																													#88BA3F	True	hit	550.7931709289551	1500		14	2	0back_single_training	0																#88BA3F									OA04	yes	yes	no	2024-08-28_08h04.29.593	EXNAT_3_training	2024.1.0	2024-08-28 08h13.29.847142 +0200	
						2	0	2	0																													#88BA3F	True	hit	584.1848850250244	1500		15	2	0back_single_training	0																#88BA3F									OA04	yes	yes	no	2024-08-28_08h04.29.593	EXNAT_3_training	2024.1.0	2024-08-28 08h13.29.847142 +0200	
						2	0	2	0																													#F989A2	False	correct rejection	None	550.6629943847656		16	2	0back_single_training	0																#88BA3F									OA04	yes	yes	no	2024-08-28_08h04.29.593	EXNAT_3_training	2024.1.0	2024-08-28 08h13.29.847142 +0200	
						2	0	2	0																													#D292F3	False	correct rejection	None	650.9017944335938		17	2	0back_single_training	0																#88BA3F									OA04	yes	yes	no	2024-08-28_08h04.29.593	EXNAT_3_training	2024.1.0	2024-08-28 08h13.29.847142 +0200	
						2	0	2	0																													#F989A2	False	correct rejection	None	450.52504539489746		18	2	0back_single_training	0																#88BA3F									OA04	yes	yes	no	2024-08-28_08h04.29.593	EXNAT_3_training	2024.1.0	2024-08-28 08h13.29.847142 +0200	
						2	0	2	0																													#D292F3	False	correct rejection	None	450.4120349884033		19	2	0back_single_training	0																#88BA3F									OA04	yes	yes	no	2024-08-28_08h04.29.593	EXNAT_3_training	2024.1.0	2024-08-28 08h13.29.847142 +0200	
						2	0	2	0																													#D292F3	False	correct rejection	None	517.3840522766113		20	2	0back_single_training	0																#88BA3F									OA04	yes	yes	no	2024-08-28_08h04.29.593	EXNAT_3_training	2024.1.0	2024-08-28 08h13.29.847142 +0200	
						2	0	2	0																											374.2944211959839	374.2944300174713	#88BA3F	False	false alarm	1233.3810329437256	1500	text_02	1	3	0back_dual_main_click	0	In															#2AB7EF									OA04	yes	yes	no	2024-08-28_08h04.29.593	EXNAT_3_training	2024.1.0	2024-08-28 08h13.29.847142 +0200	
						2	0	2	0																													#F989A2	False	correct rejection	None	1015.4309272766113	text_02	2	3	0back_dual_main_click	0	Tansania															#2AB7EF									OA04	yes	yes	no	2024-08-28_08h04.29.593	EXNAT_3_training	2024.1.0	2024-08-28 08h13.29.847142 +0200	
						2	0	2	0																													#D292F3	False	correct rejection	None	598.2780456542969	text_02	3	3	0back_dual_main_click	0	haben															#2AB7EF									OA04	yes	yes	no	2024-08-28_08h04.29.593	EXNAT_3_training	2024.1.0	2024-08-28 08h13.29.847142 +0200	
						2	0	2	0																													#D292F3	False	correct rejection	None	664.3998622894287	text_02	4	3	0back_dual_main_click	0	Forscher															#2AB7EF									OA04	yes	yes	no	2024-08-28_08h04.29.593	EXNAT_3_training	2024.1.0	2024-08-28 08h13.29.847142 +0200	
						2	0	2	0																													#F989A2	False	correct rejection	None	581.0999870300293	text_02	5	3	0back_dual_main_click	0	Überreste															#2AB7EF									OA04	yes	yes	no	2024-08-28_08h04.29.593	EXNAT_3_training	2024.1.0	2024-08-28 08h13.29.847142 +0200	
						2	0	2	0																													#D292F3	False	correct rejection	None	532.7270030975342	text_02	6	3	0back_dual_main_click	0	eines															#2AB7EF									OA04	yes	yes	no	2024-08-28_08h04.29.593	EXNAT_3_training	2024.1.0	2024-08-28 08h13.29.847142 +0200	
						2	0	2	0																													#F989A2	False	correct rejection	None	613.4800910949707	text_02	7	3	0back_dual_main_click	0	Urzeit-Krokodils															#2AB7EF									OA04	yes	yes	no	2024-08-28_08h04.29.593	EXNAT_3_training	2024.1.0	2024-08-28 08h13.29.847142 +0200	
						2	0	2	0																													#F989A2	False	correct rejection	None	515.099048614502	text_02	8	3	0back_dual_main_click	0	entdeckt.															#2AB7EF									OA04	yes	yes	no	2024-08-28_08h04.29.593	EXNAT_3_training	2024.1.0	2024-08-28 08h13.29.847142 +0200	
						2	0	2	0																													#F989A2	False	correct rejection	None	565.3798580169678	text_02	9	3	0back_dual_main_click	0	Es															#2AB7EF									OA04	yes	yes	no	2024-08-28_08h04.29.593	EXNAT_3_training	2024.1.0	2024-08-28 08h13.29.847142 +0200	
						2	0	2	0																													#D292F3	False	correct rejection	None	498.9609718322754	text_02	10	3	0back_dual_main_click	0	zeigt															#2AB7EF									OA04	yes	yes	no	2024-08-28_08h04.29.593	EXNAT_3_training	2024.1.0	2024-08-28 08h13.29.847142 +0200	
						2	0	2	0																													#F989A2	False	correct rejection	None	531.2230587005615	text_02	11	3	0back_dual_main_click	0	Ähnlichkeiten															#2AB7EF									OA04	yes	yes	no	2024-08-28_08h04.29.593	EXNAT_3_training	2024.1.0	2024-08-28 08h13.29.847142 +0200	
						2	0	2	0																													#88BA3F	False	false alarm	515.5448913574219	1166.316032409668	text_02	12	3	0back_dual_main_click	0	zu															#2AB7EF									OA04	yes	yes	no	2024-08-28_08h04.29.593	EXNAT_3_training	2024.1.0	2024-08-28 08h13.29.847142 +0200	
						2	0	2	0																													#88BA3F	False	false alarm	631.6719055175781	1166.5630340576172	text_02	13	3	0back_dual_main_click	0	Säugetieren.															#2AB7EF									OA04	yes	yes	no	2024-08-28_08h04.29.593	EXNAT_3_training	2024.1.0	2024-08-28 08h13.29.847142 +0200	
						2	0	2	0																													#D292F3	False	correct rejection	None	1500	text_02	14	3	0back_dual_main_click	0	Es															#2AB7EF									OA04	yes	yes	no	2024-08-28_08h04.29.593	EXNAT_3_training	2024.1.0	2024-08-28 08h13.29.847142 +0200	
						2	0	2	0																													#88BA3F	False	correct rejection	None	1500	text_02	15	3	0back_dual_main_click	0	war															#2AB7EF									OA04	yes	yes	no	2024-08-28_08h04.29.593	EXNAT_3_training	2024.1.0	2024-08-28 08h13.29.847142 +0200	
						2	0	2	0																													#D292F3	False	correct rejection	None	1500	text_02	16	3	0back_dual_main_click	0	so															#2AB7EF									OA04	yes	yes	no	2024-08-28_08h04.29.593	EXNAT_3_training	2024.1.0	2024-08-28 08h13.29.847142 +0200	
						2	0	2	0																													#88BA3F	False	correct rejection	None	1500	text_02	17	3	0back_dual_main_click	0	groß															#2AB7EF									OA04	yes	yes	no	2024-08-28_08h04.29.593	EXNAT_3_training	2024.1.0	2024-08-28 08h13.29.847142 +0200	
						2	0	2	0																													#88BA3F	False	correct rejection	None	1500	text_02	18	3	0back_dual_main_click	0	wie															#2AB7EF									OA04	yes	yes	no	2024-08-28_08h04.29.593	EXNAT_3_training	2024.1.0	2024-08-28 08h13.29.847142 +0200	
						2	0	2	0																													#2AB7EF	True	hit	715.5380249023438	1500	text_02	19	3	0back_dual_main_click	0	eine															#2AB7EF									OA04	yes	yes	no	2024-08-28_08h04.29.593	EXNAT_3_training	2024.1.0	2024-08-28 08h13.29.847142 +0200	
						2	0	2	0																													#D292F3	False	correct rejection	None	1500	text_02	20	3	0back_dual_main_click	0	Katze.															#2AB7EF									OA04	yes	yes	no	2024-08-28_08h04.29.593	EXNAT_3_training	2024.1.0	2024-08-28 08h13.29.847142 +0200	
						2	0	2	0																													#2AB7EF	True	hit	582.4000835418701	1500	text_02	21	3	0back_dual_main_click	0	Das															#2AB7EF									OA04	yes	yes	no	2024-08-28_08h04.29.593	EXNAT_3_training	2024.1.0	2024-08-28 08h13.29.847142 +0200	
						2	0	2	0																													#2AB7EF	True	hit	916.8491363525391	1500	text_02	22	3	0back_dual_main_click	0	Tier															#2AB7EF									OA04	yes	yes	no	2024-08-28_08h04.29.593	EXNAT_3_training	2024.1.0	2024-08-28 08h13.29.847142 +0200	
						2	0	2	0																													#88BA3F	False	correct rejection	None	1500	text_02	23	3	0back_dual_main_click	0	lebte															#2AB7EF									OA04	yes	yes	no	2024-08-28_08h04.29.593	EXNAT_3_training	2024.1.0	2024-08-28 08h13.29.847142 +0200	
						2	0	2	0																													#88BA3F	False	correct rejection	None	1500	text_02	24	3	0back_dual_main_click	0	vor															#2AB7EF									OA04	yes	yes	no	2024-08-28_08h04.29.593	EXNAT_3_training	2024.1.0	2024-08-28 08h13.29.847142 +0200	
						2	0	2	0																													#2AB7EF	True	hit	832.6539993286133	1500	text_02	25	3	0back_dual_main_click	0	etwa															#2AB7EF									OA04	yes	yes	no	2024-08-28_08h04.29.593	EXNAT_3_training	2024.1.0	2024-08-28 08h13.29.847142 +0200	
						2	0	2	0																													#2AB7EF	True	hit	698.0249881744385	1500	text_02	26	3	0back_dual_main_click	0	105															#2AB7EF									OA04	yes	yes	no	2024-08-28_08h04.29.593	EXNAT_3_training	2024.1.0	2024-08-28 08h13.29.847142 +0200	
						2	0	2	0																													#88BA3F	False	correct rejection	None	1082.7631950378418	text_02	27	3	0back_dual_main_click	0	Millionen															#2AB7EF									OA04	yes	yes	no	2024-08-28_08h04.29.593	EXNAT_3_training	2024.1.0	2024-08-28 08h13.29.847142 +0200	
						2	0	2	0																													#88BA3F	False	correct rejection	None	581.2368392944336	text_02	28	3	0back_dual_main_click	0	Jahren															#2AB7EF									OA04	yes	yes	no	2024-08-28_08h04.29.593	EXNAT_3_training	2024.1.0	2024-08-28 08h13.29.847142 +0200	
						2	0	2	0																													#88BA3F	False	correct rejection	None	582.9510688781738	text_02	29	3	0back_dual_main_click	0	und															#2AB7EF									OA04	yes	yes	no	2024-08-28_08h04.29.593	EXNAT_3_training	2024.1.0	2024-08-28 08h13.29.847142 +0200	
						2	0	2	0																													#D292F3	False	correct rejection	None	531.1579704284668	text_02	30	3	0back_dual_main_click	0	jagte															#2AB7EF									OA04	yes	yes	no	2024-08-28_08h04.29.593	EXNAT_3_training	2024.1.0	2024-08-28 08h13.29.847142 +0200	
						2	0	2	0																													#2AB7EF	True	hit	516.2229537963867	1551.5780448913574	text_02	31	3	0back_dual_main_click	0	an															#2AB7EF									OA04	yes	yes	no	2024-08-28_08h04.29.593	EXNAT_3_training	2024.1.0	2024-08-28 08h13.29.847142 +0200	
						2	0	2	0																													#D292F3	False	correct rejection	None	515.078067779541	text_02	32	3	0back_dual_main_click	0	Land															#2AB7EF									OA04	yes	yes	no	2024-08-28_08h04.29.593	EXNAT_3_training	2024.1.0	2024-08-28 08h13.29.847142 +0200	
						2	0	2	0																													#F989A2	False	correct rejection	None	515.6209468841553	text_02	33	3	0back_dual_main_click	0	nach															#2AB7EF									OA04	yes	yes	no	2024-08-28_08h04.29.593	EXNAT_3_training	2024.1.0	2024-08-28 08h13.29.847142 +0200	
						2	0	2	0																													#D292F3	False	correct rejection	None	598.9890098571777	text_02	34	3	0back_dual_main_click	0	Insekten															#2AB7EF									OA04	yes	yes	no	2024-08-28_08h04.29.593	EXNAT_3_training	2024.1.0	2024-08-28 08h13.29.847142 +0200	
						2	0	2	0																													#F989A2	False	correct rejection	None	581.5811157226562	text_02	35	3	0back_dual_main_click	0	und															#2AB7EF									OA04	yes	yes	no	2024-08-28_08h04.29.593	EXNAT_3_training	2024.1.0	2024-08-28 08h13.29.847142 +0200	
						2	0	2	0																													#88BA3F	False	correct rejection	None	715.6081199645996	text_02	36	3	0back_dual_main_click	0	kleinen															#2AB7EF									OA04	yes	yes	no	2024-08-28_08h04.29.593	EXNAT_3_training	2024.1.0	2024-08-28 08h13.29.847142 +0200	
						2	0	2	0																													#D292F3	False	correct rejection	None	582.8170776367188	text_02	37	3	0back_dual_main_click	0	Tieren.															#2AB7EF									OA04	yes	yes	no	2024-08-28_08h04.29.593	EXNAT_3_training	2024.1.0	2024-08-28 08h13.29.847142 +0200	
						2	0	2	0																													#88BA3F	False	correct rejection	None	615.3759956359863	text_02	38	3	0back_dual_main_click	0	Es															#2AB7EF									OA04	yes	yes	no	2024-08-28_08h04.29.593	EXNAT_3_training	2024.1.0	2024-08-28 08h13.29.847142 +0200	
						2	0	2	0																													#2AB7EF	True	hit	498.68011474609375	1283.539056777954	text_02	39	3	0back_dual_main_click	0	besaß															#2AB7EF									OA04	yes	yes	no	2024-08-28_08h04.29.593	EXNAT_3_training	2024.1.0	2024-08-28 08h13.29.847142 +0200	
						2	0	2	0																													#F989A2	False	correct rejection	None	665.0669574737549	text_02	40	3	0back_dual_main_click	0	ungewöhnliche															#2AB7EF									OA04	yes	yes	no	2024-08-28_08h04.29.593	EXNAT_3_training	2024.1.0	2024-08-28 08h13.29.847142 +0200	
						2	0	2	0																													#F989A2	False	correct rejection	None	498.4099864959717	text_02	41	3	0back_dual_main_click	0	"Merkmale,"															#2AB7EF									OA04	yes	yes	no	2024-08-28_08h04.29.593	EXNAT_3_training	2024.1.0	2024-08-28 08h13.29.847142 +0200	
						2	0	2	0																													#F989A2	False	correct rejection	None	548.0260848999023	text_02	42	3	0back_dual_main_click	0	wie															#2AB7EF									OA04	yes	yes	no	2024-08-28_08h04.29.593	EXNAT_3_training	2024.1.0	2024-08-28 08h13.29.847142 +0200	
						2	0	2	0																													#F989A2	False	correct rejection	None	515.2900218963623	text_02	43	3	0back_dual_main_click	0	weniger															#2AB7EF									OA04	yes	yes	no	2024-08-28_08h04.29.593	EXNAT_3_training	2024.1.0	2024-08-28 08h13.29.847142 +0200	
						2	0	2	0																													#88BA3F	False	correct rejection	None	748.8369941711426	text_02	44	3	0back_dual_main_click	0	Zähne															#2AB7EF									OA04	yes	yes	no	2024-08-28_08h04.29.593	EXNAT_3_training	2024.1.0	2024-08-28 08h13.29.847142 +0200	
						2	0	2	0																													#F989A2	False	correct rejection	None	565.7370090484619	text_02	45	3	0back_dual_main_click	0	und															#2AB7EF									OA04	yes	yes	no	2024-08-28_08h04.29.593	EXNAT_3_training	2024.1.0	2024-08-28 08h13.29.847142 +0200	
						2	0	2	0																													#F989A2	False	correct rejection	None	515.516996383667	text_02	46	3	0back_dual_main_click	0	hatte															#2AB7EF									OA04	yes	yes	no	2024-08-28_08h04.29.593	EXNAT_3_training	2024.1.0	2024-08-28 08h13.29.847142 +0200	
						2	0	2	0																													#D292F3	False	correct rejection	None	632.256031036377	text_02	47	3	0back_dual_main_click	0	Backenzähne															#2AB7EF									OA04	yes	yes	no	2024-08-28_08h04.29.593	EXNAT_3_training	2024.1.0	2024-08-28 08h13.29.847142 +0200	
						2	0	2	0																													#88BA3F	False	correct rejection	None	565.5698776245117	text_02	48	3	0back_dual_main_click	0	zum															#2AB7EF									OA04	yes	yes	no	2024-08-28_08h04.29.593	EXNAT_3_training	2024.1.0	2024-08-28 08h13.29.847142 +0200	
						2	0	2	0																													#2AB7EF	True	hit	565.2859210968018	1066.3211345672607	text_02	49	3	0back_dual_main_click	0	Kauen															#2AB7EF									OA04	yes	yes	no	2024-08-28_08h04.29.593	EXNAT_3_training	2024.1.0	2024-08-28 08h13.29.847142 +0200	
						2	0	2	0																													#D292F3	False	correct rejection	None	598.3619689941406	text_02	50	3	0back_dual_main_click	0	von															#2AB7EF									OA04	yes	yes	no	2024-08-28_08h04.29.593	EXNAT_3_training	2024.1.0	2024-08-28 08h13.29.847142 +0200	
						2	0	2	0																													#D292F3	False	correct rejection	None	565.0019645690918	text_02	51	3	0back_dual_main_click	0	Nahrung.															#2AB7EF									OA04	yes	yes	no	2024-08-28_08h04.29.593	EXNAT_3_training	2024.1.0	2024-08-28 08h13.29.847142 +0200	
						2	0	2	0																													#D292F3	False	correct rejection	None	531.9998264312744	text_02	52	3	0back_dual_main_click	0	Außerdem															#2AB7EF									OA04	yes	yes	no	2024-08-28_08h04.29.593	EXNAT_3_training	2024.1.0	2024-08-28 08h13.29.847142 +0200	
						2	0	2	0																													#88BA3F	False	correct rejection	None	548.3341217041016	text_02	53	3	0back_dual_main_click	0	war															#2AB7EF									OA04	yes	yes	no	2024-08-28_08h04.29.593	EXNAT_3_training	2024.1.0	2024-08-28 08h13.29.847142 +0200	
						2	0	2	0																													#F989A2	False	correct rejection	None	532.3970317840576	text_02	54	3	0back_dual_main_click	0	es															#2AB7EF									OA04	yes	yes	no	2024-08-28_08h04.29.593	EXNAT_3_training	2024.1.0	2024-08-28 08h13.29.847142 +0200	
						2	0	2	0																													#D292F3	False	correct rejection	None	582.097053527832	text_02	55	3	0back_dual_main_click	0	weniger															#2AB7EF									OA04	yes	yes	no	2024-08-28_08h04.29.593	EXNAT_3_training	2024.1.0	2024-08-28 08h13.29.847142 +0200	
						2	0	2	0																													#88BA3F	False	correct rejection	None	547.947883605957	text_02	56	3	0back_dual_main_click	0	gepanzert.															#2AB7EF									OA04	yes	yes	no	2024-08-28_08h04.29.593	EXNAT_3_training	2024.1.0	2024-08-28 08h13.29.847142 +0200	
						2	0	2	0																													#2AB7EF	True	hit	549.3180751800537	983.0310344696045	text_02	57	3	0back_dual_main_click	0	Die															#2AB7EF									OA04	yes	yes	no	2024-08-28_08h04.29.593	EXNAT_3_training	2024.1.0	2024-08-28 08h13.29.847142 +0200	
						2	0	2	0																													#D292F3	False	correct rejection	None	532.1228504180908	text_02	58	3	0back_dual_main_click	0	Forscher															#2AB7EF									OA04	yes	yes	no	2024-08-28_08h04.29.593	EXNAT_3_training	2024.1.0	2024-08-28 08h13.29.847142 +0200	
						2	0	2	0																													#F989A2	False	correct rejection	None	565.9081935882568	text_02	59	3	0back_dual_main_click	0	"denken,"															#2AB7EF									OA04	yes	yes	no	2024-08-28_08h04.29.593	EXNAT_3_training	2024.1.0	2024-08-28 08h13.29.847142 +0200	
						2	0	2	0																													#88BA3F	False	correct rejection	None	515.1240825653076	text_02	60	3	0back_dual_main_click	0	dass															#2AB7EF									OA04	yes	yes	no	2024-08-28_08h04.29.593	EXNAT_3_training	2024.1.0	2024-08-28 08h13.29.847142 +0200	
						2	0	2	0																													#2AB7EF	True	hit	565.540075302124	1033.6940288543701	text_02	61	3	0back_dual_main_click	0	Krokodile															#2AB7EF									OA04	yes	yes	no	2024-08-28_08h04.29.593	EXNAT_3_training	2024.1.0	2024-08-28 08h13.29.847142 +0200	
						2	0	2	0																													#D292F3	False	correct rejection	None	598.5960960388184	text_02	62	3	0back_dual_main_click	0	in															#2AB7EF									OA04	yes	yes	no	2024-08-28_08h04.29.593	EXNAT_3_training	2024.1.0	2024-08-28 08h13.29.847142 +0200	
						2	0	2	0																													#2AB7EF	True	miss	None	549.0889549255371	text_02	63	3	0back_dual_main_click	0	der															#2AB7EF									OA04	yes	yes	no	2024-08-28_08h04.29.593	EXNAT_3_training	2024.1.0	2024-08-28 08h13.29.847142 +0200	
						2	0	2	0																													#F989A2	False	correct rejection	None	564.4772052764893	text_02	64	3	0back_dual_main_click	0	Vergangenheit															#2AB7EF									OA04	yes	yes	no	2024-08-28_08h04.29.593	EXNAT_3_training	2024.1.0	2024-08-28 08h13.29.847142 +0200	
						2	0	2	0																													#D292F3	False	correct rejection	None	582.4649333953857	text_02	65	3	0back_dual_main_click	0	auf															#2AB7EF									OA04	yes	yes	no	2024-08-28_08h04.29.593	EXNAT_3_training	2024.1.0	2024-08-28 08h13.29.847142 +0200	
						2	0	2	0																													#F989A2	False	correct rejection	None	599.1849899291992	text_02	66	3	0back_dual_main_click	0	der															#2AB7EF									OA04	yes	yes	no	2024-08-28_08h04.29.593	EXNAT_3_training	2024.1.0	2024-08-28 08h13.29.847142 +0200	
						2	0	2	0																													#F989A2	False	correct rejection	None	498.1207847595215	text_02	67	3	0back_dual_main_click	0	Südhalbkugel															#2AB7EF									OA04	yes	yes	no	2024-08-28_08h04.29.593	EXNAT_3_training	2024.1.0	2024-08-28 08h13.29.847142 +0200	
						2	0	2	0																													#F989A2	False	correct rejection	None	548.663854598999	text_02	68	3	0back_dual_main_click	0	"lebten,"															#2AB7EF									OA04	yes	yes	no	2024-08-28_08h04.29.593	EXNAT_3_training	2024.1.0	2024-08-28 08h13.29.847142 +0200	
						2	0	2	0																													#D292F3	False	correct rejection	None	715.6810760498047	text_02	69	3	0back_dual_main_click	0	während															#2AB7EF									OA04	yes	yes	no	2024-08-28_08h04.29.593	EXNAT_3_training	2024.1.0	2024-08-28 08h13.29.847142 +0200	
						2	0	2	0																													#88BA3F	False	correct rejection	None	599.1427898406982	text_02	70	3	0back_dual_main_click	0	sich															#2AB7EF									OA04	yes	yes	no	2024-08-28_08h04.29.593	EXNAT_3_training	2024.1.0	2024-08-28 08h13.29.847142 +0200	
						2	0	2	0																													#2AB7EF	True	hit	531.8138599395752	1099.574089050293	text_02	71	3	0back_dual_main_click	0	Säugetiere															#2AB7EF									OA04	yes	yes	no	2024-08-28_08h04.29.593	EXNAT_3_training	2024.1.0	2024-08-28 08h13.29.847142 +0200	
						2	0	2	0																													#F989A2	False	correct rejection	None	615.6668663024902	text_02	72	3	0back_dual_main_click	0	auf															#2AB7EF									OA04	yes	yes	no	2024-08-28_08h04.29.593	EXNAT_3_training	2024.1.0	2024-08-28 08h13.29.847142 +0200	
						2	0	2	0																													#D292F3	False	correct rejection	None	565.7088756561279	text_02	73	3	0back_dual_main_click	0	der															#2AB7EF									OA04	yes	yes	no	2024-08-28_08h04.29.593	EXNAT_3_training	2024.1.0	2024-08-28 08h13.29.847142 +0200	
						2	0	2	0																													#88BA3F	False	correct rejection	None	748.9759922027588	text_02	74	3	0back_dual_main_click	0	Nordhalbkugel															#2AB7EF									OA04	yes	yes	no	2024-08-28_08h04.29.593	EXNAT_3_training	2024.1.0	2024-08-28 08h13.29.847142 +0200	
						2	0	2	0																													#F989A2	False	correct rejection	None	598.8731384277344	text_02	75	3	0back_dual_main_click	0	ausbreiteten.															#2AB7EF									OA04	yes	yes	no	2024-08-28_08h04.29.593	EXNAT_3_training	2024.1.0	2024-08-28 08h13.29.847142 +0200	
						2	0	2	0																													#88BA3F	False	correct rejection	None	598.9859104156494	text_02	76	3	0back_dual_main_click	0	Die															#2AB7EF									OA04	yes	yes	no	2024-08-28_08h04.29.593	EXNAT_3_training	2024.1.0	2024-08-28 08h13.29.847142 +0200	
						2	0	2	0																													#D292F3	False	correct rejection	None	999.521017074585	text_02	77	3	0back_dual_main_click	0	Forscher															#2AB7EF									OA04	yes	yes	no	2024-08-28_08h04.29.593	EXNAT_3_training	2024.1.0	2024-08-28 08h13.29.847142 +0200	
						2	0	2	0																													#F989A2	False	correct rejection	None	546.7779636383057	text_02	78	3	0back_dual_main_click	0	werden															#2AB7EF									OA04	yes	yes	no	2024-08-28_08h04.29.593	EXNAT_3_training	2024.1.0	2024-08-28 08h13.29.847142 +0200	
						2	0	2	0																													#2AB7EF	True	hit	766.1819458007812	1400.745153427124	text_02	79	3	0back_dual_main_click	0	in															#2AB7EF									OA04	yes	yes	no	2024-08-28_08h04.29.593	EXNAT_3_training	2024.1.0	2024-08-28 08h13.29.847142 +0200	
						2	0	2	0																													#F989A2	False	correct rejection	None	550.3280162811279	text_02	80	3	0back_dual_main_click	0	Zukunft															#2AB7EF									OA04	yes	yes	no	2024-08-28_08h04.29.593	EXNAT_3_training	2024.1.0	2024-08-28 08h13.29.847142 +0200	
						2	0	2	0																													#88BA3F	False	correct rejection	None	548.6660003662109	text_02	81	3	0back_dual_main_click	0	versuchen															#2AB7EF									OA04	yes	yes	no	2024-08-28_08h04.29.593	EXNAT_3_training	2024.1.0	2024-08-28 08h13.29.847142 +0200	
						2	0	2	0																													#D292F3	False	correct rejection	None	532.1319103240967	text_02	82	3	0back_dual_main_click	0	mehr															#2AB7EF									OA04	yes	yes	no	2024-08-28_08h04.29.593	EXNAT_3_training	2024.1.0	2024-08-28 08h13.29.847142 +0200	
						2	0	2	0																													#F989A2	False	correct rejection	None	532.1578979492188	text_02	83	3	0back_dual_main_click	0	über															#2AB7EF									OA04	yes	yes	no	2024-08-28_08h04.29.593	EXNAT_3_training	2024.1.0	2024-08-28 08h13.29.847142 +0200	
						2	0	2	0																													#2AB7EF	True	hit	649.2249965667725	1250.3941059112549	text_02	84	3	0back_dual_main_click	0	die															#2AB7EF									OA04	yes	yes	no	2024-08-28_08h04.29.593	EXNAT_3_training	2024.1.0	2024-08-28 08h13.29.847142 +0200	
						2	0	2	0																													#D292F3	False	correct rejection	None	498.25406074523926	text_02	85	3	0back_dual_main_click	0	frühe															#2AB7EF									OA04	yes	yes	no	2024-08-28_08h04.29.593	EXNAT_3_training	2024.1.0	2024-08-28 08h13.29.847142 +0200	
						2	0	2	0																													#2AB7EF	True	hit	582.0200443267822	999.5009899139404	text_02	86	3	0back_dual_main_click	0	Tierwelt															#2AB7EF									OA04	yes	yes	no	2024-08-28_08h04.29.593	EXNAT_3_training	2024.1.0	2024-08-28 08h13.29.847142 +0200	
						2	0	2	0																													#D292F3	False	correct rejection	None	598.9780426025391	text_02	87	3	0back_dual_main_click	0	auf															#2AB7EF									OA04	yes	yes	no	2024-08-28_08h04.29.593	EXNAT_3_training	2024.1.0	2024-08-28 08h13.29.847142 +0200	
						2	0	2	0																													#88BA3F	False	correct rejection	None	549.0241050720215	text_02	88	3	0back_dual_main_click	0	der															#2AB7EF									OA04	yes	yes	no	2024-08-28_08h04.29.593	EXNAT_3_training	2024.1.0	2024-08-28 08h13.29.847142 +0200	
						2	0	2	0																													#88BA3F	False	correct rejection	None	598.6361503601074	text_02	89	3	0back_dual_main_click	0	Südhalbkugel															#2AB7EF									OA04	yes	yes	no	2024-08-28_08h04.29.593	EXNAT_3_training	2024.1.0	2024-08-28 08h13.29.847142 +0200	
						2	0	2	0																													#88BA3F	False	correct rejection	None	549.0579605102539	text_02	90	3	0back_dual_main_click	0	zu															#2AB7EF									OA04	yes	yes	no	2024-08-28_08h04.29.593	EXNAT_3_training	2024.1.0	2024-08-28 08h13.29.847142 +0200	
						2	0	2	0																													#F989A2	False	correct rejection	None	582.0250511169434	text_02	91	3	0back_dual_main_click	0	erfahren.															#2AB7EF									OA04	yes	yes	no	2024-08-28_08h04.29.593	EXNAT_3_training	2024.1.0	2024-08-28 08h13.29.847142 +0200	
						2	0	2	0																																		text_02			0back_dual_main_click			461.925222158432	Q1	3	c	True	4	0																	OA04	yes	yes	no	2024-08-28_08h04.29.593	EXNAT_3_training	2024.1.0	2024-08-28 08h13.29.847142 +0200	
						2	0	2	0																																		text_02			0back_dual_main_click			471.6999161243439	Q2	4	d	True	4	0																	OA04	yes	yes	no	2024-08-28_08h04.29.593	EXNAT_3_training	2024.1.0	2024-08-28 08h13.29.847142 +0200	
						2	0	2	0																																		text_02			0back_dual_main_click			477.04079699516296	Q3	2	b	True	4	0																	OA04	yes	yes	no	2024-08-28_08h04.29.593	EXNAT_3_training	2024.1.0	2024-08-28 08h13.29.847142 +0200	
						2	0	2	0																																															482.30752205848694	482.3075420856476	482.347186088562	482.34719800949097	482.35640716552734	482.35641622543335	482.3729290962219										OA04	yes	yes	no	2024-08-28_08h04.29.593	EXNAT_3_training	2024.1.0	2024-08-28 08h13.29.847142 +0200	
						3	0	3	0	482.3897440433502																									482.37323212623596			#88BA3F	False	correct rejection	None	1287.27388381958		1	4	1back_single_training1	1																									OA04	yes	yes	no	2024-08-28_08h04.29.593	EXNAT_3_training	2024.1.0	2024-08-28 08h13.29.847142 +0200	
						3	0	3	0																													#88BA3F	True	hit	634.2649459838867	1435.8160495758057		2	4	1back_single_training1	1																									OA04	yes	yes	no	2024-08-28_08h04.29.593	EXNAT_3_training	2024.1.0	2024-08-28 08h13.29.847142 +0200	
						3	0	3	0																													#F989A2	False	correct rejection	None	584.1450691223145		3	4	1back_single_training1	1																									OA04	yes	yes	no	2024-08-28_08h04.29.593	EXNAT_3_training	2024.1.0	2024-08-28 08h13.29.847142 +0200	
						3	0	3	0																													#F989A2	True	hit	551.2609481811523	1319.4198608398438		4	4	1back_single_training1	1																									OA04	yes	yes	no	2024-08-28_08h04.29.593	EXNAT_3_training	2024.1.0	2024-08-28 08h13.29.847142 +0200	
						3	0	3	0																													#2AB7EF	False	correct rejection	None	550.8010387420654		5	4	1back_single_training1	1																									OA04	yes	yes	no	2024-08-28_08h04.29.593	EXNAT_3_training	2024.1.0	2024-08-28 08h13.29.847142 +0200	
						3	0	3	0																													#F989A2	False	correct rejection	None	701.1020183563232		6	4	1back_single_training1	1																									OA04	yes	yes	no	2024-08-28_08h04.29.593	EXNAT_3_training	2024.1.0	2024-08-28 08h13.29.847142 +0200	
						3	0	3	0																													#88BA3F	False	correct rejection	None	650.9530544281006		7	4	1back_single_training1	1																									OA04	yes	yes	no	2024-08-28_08h04.29.593	EXNAT_3_training	2024.1.0	2024-08-28 08h13.29.847142 +0200	
						3	0	3	0																													#D292F3	False	correct rejection	None	517.8699493408203		8	4	1back_single_training1	1																									OA04	yes	yes	no	2024-08-28_08h04.29.593	EXNAT_3_training	2024.1.0	2024-08-28 08h13.29.847142 +0200	
						3	0	3	0																													#2AB7EF	False	correct rejection	None	550.7810115814209		9	4	1back_single_training1	1																									OA04	yes	yes	no	2024-08-28_08h04.29.593	EXNAT_3_training	2024.1.0	2024-08-28 08h13.29.847142 +0200	
						3	0	3	0																													#D292F3	False	correct rejection	None	584.1829776763916		10	4	1back_single_training1	1																									OA04	yes	yes	no	2024-08-28_08h04.29.593	EXNAT_3_training	2024.1.0	2024-08-28 08h13.29.847142 +0200	
						3	0	3	0																													#D292F3	True	hit	500.6990432739258	1168.6501502990723		11	4	1back_single_training1	1																									OA04	yes	yes	no	2024-08-28_08h04.29.593	EXNAT_3_training	2024.1.0	2024-08-28 08h13.29.847142 +0200	
						3	0	3	0																													#D292F3	True	miss	None	983.3259582519531		12	4	1back_single_training1	1																									OA04	yes	yes	no	2024-08-28_08h04.29.593	EXNAT_3_training	2024.1.0	2024-08-28 08h13.29.847142 +0200	
						3	0	3	0																													#88BA3F	False	correct rejection	None	1170.3729629516602		13	4	1back_single_training1	1																									OA04	yes	yes	no	2024-08-28_08h04.29.593	EXNAT_3_training	2024.1.0	2024-08-28 08h13.29.847142 +0200	
						3	0	3	0																													#F989A2	False	correct rejection	None	534.0859889984131		14	4	1back_single_training1	1																									OA04	yes	yes	no	2024-08-28_08h04.29.593	EXNAT_3_training	2024.1.0	2024-08-28 08h13.29.847142 +0200	
						3	0	3	0																													#F989A2	True	miss	None	1500		15	4	1back_single_training1	1																									OA04	yes	yes	no	2024-08-28_08h04.29.593	EXNAT_3_training	2024.1.0	2024-08-28 08h13.29.847142 +0200	
						3	0	3	0																													#D292F3	False	correct rejection	None	1500		16	4	1back_single_training1	1																									OA04	yes	yes	no	2024-08-28_08h04.29.593	EXNAT_3_training	2024.1.0	2024-08-28 08h13.29.847142 +0200	
						3	0	3	0																													#2AB7EF	False	correct rejection	None	15.879154205322266		17	4	1back_single_training1	1																									OA04	yes	yes	no	2024-08-28_08h04.29.593	EXNAT_3_training	2024.1.0	2024-08-28 08h13.29.847142 +0200	
						3	0	3	0																													#88BA3F	False	correct rejection	None	835.1540565490723		18	4	1back_single_training1	1																									OA04	yes	yes	no	2024-08-28_08h04.29.593	EXNAT_3_training	2024.1.0	2024-08-28 08h13.29.847142 +0200	
						3	0	3	0																													#D292F3	False	correct rejection	None	834.6819877624512		19	4	1back_single_training1	1																									OA04	yes	yes	no	2024-08-28_08h04.29.593	EXNAT_3_training	2024.1.0	2024-08-28 08h13.29.847142 +0200	
						3	0	3	0																													#F989A2	False	correct rejection	None	550.7700443267822		20	4	1back_single_training1	1																									OA04	yes	yes	no	2024-08-28_08h04.29.593	EXNAT_3_training	2024.1.0	2024-08-28 08h13.29.847142 +0200	
						3	0	3	0																													#88BA3F	False	correct rejection	None	1500		1	5	1back_single_training2	1																									OA04	yes	yes	no	2024-08-28_08h04.29.593	EXNAT_3_training	2024.1.0	2024-08-28 08h13.29.847142 +0200	
						3	0	3	0																													#88BA3F	True	hit	567.4829483032227	1500		2	5	1back_single_training2	1																									OA04	yes	yes	no	2024-08-28_08h04.29.593	EXNAT_3_training	2024.1.0	2024-08-28 08h13.29.847142 +0200	
						3	0	3	0																													#F989A2	False	correct rejection	None	1500		3	5	1back_single_training2	1																									OA04	yes	yes	no	2024-08-28_08h04.29.593	EXNAT_3_training	2024.1.0	2024-08-28 08h13.29.847142 +0200	
						3	0	3	0																													#2AB7EF	False	correct rejection	None	1500		4	5	1back_single_training2	1																									OA04	yes	yes	no	2024-08-28_08h04.29.593	EXNAT_3_training	2024.1.0	2024-08-28 08h13.29.847142 +0200	
						3	0	3	0																													#2AB7EF	True	hit	483.98900032043457	1500		5	5	1back_single_training2	1																									OA04	yes	yes	no	2024-08-28_08h04.29.593	EXNAT_3_training	2024.1.0	2024-08-28 08h13.29.847142 +0200	
						3	0	3	0																													#2AB7EF	True	hit	817.9678916931152	1500		6	5	1back_single_training2	1																									OA04	yes	yes	no	2024-08-28_08h04.29.593	EXNAT_3_training	2024.1.0	2024-08-28 08h13.29.847142 +0200	
						3	0	3	0																													#D292F3	False	correct rejection	None	1500		7	5	1back_single_training2	1																									OA04	yes	yes	no	2024-08-28_08h04.29.593	EXNAT_3_training	2024.1.0	2024-08-28 08h13.29.847142 +0200	
						3	0	3	0																													#D292F3	True	hit	549.1468906402588	1500		8	5	1back_single_training2	1																									OA04	yes	yes	no	2024-08-28_08h04.29.593	EXNAT_3_training	2024.1.0	2024-08-28 08h13.29.847142 +0200	
						3	0	3	0																													#88BA3F	False	correct rejection	None	1500		9	5	1back_single_training2	1																									OA04	yes	yes	no	2024-08-28_08h04.29.593	EXNAT_3_training	2024.1.0	2024-08-28 08h13.29.847142 +0200	
						3	0	3	0																													#D292F3	False	correct rejection	None	1101.869821548462		10	5	1back_single_training2	1																									OA04	yes	yes	no	2024-08-28_08h04.29.593	EXNAT_3_training	2024.1.0	2024-08-28 08h13.29.847142 +0200	
						3	0	3	0																													#F989A2	False	correct rejection	None	550.786018371582		11	5	1back_single_training2	1																									OA04	yes	yes	no	2024-08-28_08h04.29.593	EXNAT_3_training	2024.1.0	2024-08-28 08h13.29.847142 +0200	
						3	0	3	0																													#F989A2	True	miss	None	500.6270408630371		12	5	1back_single_training2	1																									OA04	yes	yes	no	2024-08-28_08h04.29.593	EXNAT_3_training	2024.1.0	2024-08-28 08h13.29.847142 +0200	
						3	0	3	0																													#2AB7EF	False	false alarm	116.9590950012207	1185.697078704834		13	5	1back_single_training2	1																									OA04	yes	yes	no	2024-08-28_08h04.29.593	EXNAT_3_training	2024.1.0	2024-08-28 08h13.29.847142 +0200	
						3	0	3	0																													#D292F3	False	correct rejection	None	699.4240283966064		14	5	1back_single_training2	1																									OA04	yes	yes	no	2024-08-28_08h04.29.593	EXNAT_3_training	2024.1.0	2024-08-28 08h13.29.847142 +0200	
						3	0	3	0																													#88BA3F	False	correct rejection	None	767.8780555725098		15	5	1back_single_training2	1																									OA04	yes	yes	no	2024-08-28_08h04.29.593	EXNAT_3_training	2024.1.0	2024-08-28 08h13.29.847142 +0200	
						3	0	3	0																													#2AB7EF	False	correct rejection	None	584.183931350708		16	5	1back_single_training2	1																									OA04	yes	yes	no	2024-08-28_08h04.29.593	EXNAT_3_training	2024.1.0	2024-08-28 08h13.29.847142 +0200	
						3	0	3	0																													#F989A2	False	correct rejection	None	584.1639041900635		17	5	1back_single_training2	1																									OA04	yes	yes	no	2024-08-28_08h04.29.593	EXNAT_3_training	2024.1.0	2024-08-28 08h13.29.847142 +0200	
						3	0	3	0																													#88BA3F	False	correct rejection	None	684.3750476837158		18	5	1back_single_training2	1																									OA04	yes	yes	no	2024-08-28_08h04.29.593	EXNAT_3_training	2024.1.0	2024-08-28 08h13.29.847142 +0200	
						3	0	3	0																													#D292F3	False	correct rejection	None	584.1858386993408		19	5	1back_single_training2	1																									OA04	yes	yes	no	2024-08-28_08h04.29.593	EXNAT_3_training	2024.1.0	2024-08-28 08h13.29.847142 +0200	
						3	0	3	0																													#F989A2	False	correct rejection	None	600.89111328125		20	5	1back_single_training2	1																									OA04	yes	yes	no	2024-08-28_08h04.29.593	EXNAT_3_training	2024.1.0	2024-08-28 08h13.29.847142 +0200	
						3	0	3	0																													#2AB7EF	False	correct rejection	None	1500		1	6	1back_single_main	1																									OA04	yes	yes	no	2024-08-28_08h04.29.593	EXNAT_3_training	2024.1.0	2024-08-28 08h13.29.847142 +0200	
						3	0	3	0																													#D292F3	False	correct rejection	None	718.1990146636963		2	6	1back_single_main	1																									OA04	yes	yes	no	2024-08-28_08h04.29.593	EXNAT_3_training	2024.1.0	2024-08-28 08h13.29.847142 +0200	
						3	0	3	0																													#F989A2	False	correct rejection	None	701.0610103607178		3	6	1back_single_main	1																									OA04	yes	yes	no	2024-08-28_08h04.29.593	EXNAT_3_training	2024.1.0	2024-08-28 08h13.29.847142 +0200	
						3	0	3	0																													#2AB7EF	False	correct rejection	None	784.9128246307373		4	6	1back_single_main	1																									OA04	yes	yes	no	2024-08-28_08h04.29.593	EXNAT_3_training	2024.1.0	2024-08-28 08h13.29.847142 +0200	
						3	0	3	0																													#F989A2	False	correct rejection	None	600.86989402771		5	6	1back_single_main	1																									OA04	yes	yes	no	2024-08-28_08h04.29.593	EXNAT_3_training	2024.1.0	2024-08-28 08h13.29.847142 +0200	
						3	0	3	0																													#88BA3F	False	correct rejection	None	634.2649459838867		6	6	1back_single_main	1																									OA04	yes	yes	no	2024-08-28_08h04.29.593	EXNAT_3_training	2024.1.0	2024-08-28 08h13.29.847142 +0200	
						3	0	3	0																													#88BA3F	True	hit	584.197998046875	1285.5451107025146		7	6	1back_single_main	1																									OA04	yes	yes	no	2024-08-28_08h04.29.593	EXNAT_3_training	2024.1.0	2024-08-28 08h13.29.847142 +0200	
						3	0	3	0																													#2AB7EF	False	correct rejection	None	599.1971492767334		8	6	1back_single_main	1																									OA04	yes	yes	no	2024-08-28_08h04.29.593	EXNAT_3_training	2024.1.0	2024-08-28 08h13.29.847142 +0200	
						3	0	3	0																													#D292F3	False	correct rejection	None	634.2880725860596		9	6	1back_single_main	1																									OA04	yes	yes	no	2024-08-28_08h04.29.593	EXNAT_3_training	2024.1.0	2024-08-28 08h13.29.847142 +0200	
						3	0	3	0																													#D292F3	True	hit	585.8948230743408	1203.7408351898193		10	6	1back_single_main	1																									OA04	yes	yes	no	2024-08-28_08h04.29.593	EXNAT_3_training	2024.1.0	2024-08-28 08h13.29.847142 +0200	
						3	0	3	0																													#88BA3F	False	correct rejection	None	534.0619087219238		11	6	1back_single_main	1																									OA04	yes	yes	no	2024-08-28_08h04.29.593	EXNAT_3_training	2024.1.0	2024-08-28 08h13.29.847142 +0200	
						3	0	3	0																													#F989A2	False	correct rejection	None	550.7769584655762		12	6	1back_single_main	1																									OA04	yes	yes	no	2024-08-28_08h04.29.593	EXNAT_3_training	2024.1.0	2024-08-28 08h13.29.847142 +0200	
						3	0	3	0																													#D292F3	False	correct rejection	None	901.4918804168701		13	6	1back_single_main	1																									OA04	yes	yes	no	2024-08-28_08h04.29.593	EXNAT_3_training	2024.1.0	2024-08-28 08h13.29.847142 +0200	
						3	0	3	0																													#2AB7EF	False	correct rejection	None	534.0800285339355		14	6	1back_single_main	1																									OA04	yes	yes	no	2024-08-28_08h04.29.593	EXNAT_3_training	2024.1.0	2024-08-28 08h13.29.847142 +0200	
						3	0	3	0																													#88BA3F	False	correct rejection	None	517.4450874328613		15	6	1back_single_main	1																									OA04	yes	yes	no	2024-08-28_08h04.29.593	EXNAT_3_training	2024.1.0	2024-08-28 08h13.29.847142 +0200	
						3	0	3	0																													#2AB7EF	False	correct rejection	None	585.9010219573975		16	6	1back_single_main	1																									OA04	yes	yes	no	2024-08-28_08h04.29.593	EXNAT_3_training	2024.1.0	2024-08-28 08h13.29.847142 +0200	
						3	0	3	0																													#F989A2	False	correct rejection	None	550.7550239562988		17	6	1back_single_main	1																									OA04	yes	yes	no	2024-08-28_08h04.29.593	EXNAT_3_training	2024.1.0	2024-08-28 08h13.29.847142 +0200	
						3	0	3	0																													#F989A2	True	hit	617.5451278686523	1035.0170135498047		18	6	1back_single_main	1																									OA04	yes	yes	no	2024-08-28_08h04.29.593	EXNAT_3_training	2024.1.0	2024-08-28 08h13.29.847142 +0200	
						3	0	3	0																													#D292F3	False	correct rejection	None	650.9850025177002		19	6	1back_single_main	1																									OA04	yes	yes	no	2024-08-28_08h04.29.593	EXNAT_3_training	2024.1.0	2024-08-28 08h13.29.847142 +0200	
						3	0	3	0																													#88BA3F	False	correct rejection	None	649.338960647583		20	6	1back_single_main	1																									OA04	yes	yes	no	2024-08-28_08h04.29.593	EXNAT_3_training	2024.1.0	2024-08-28 08h13.29.847142 +0200	
						3	0	3	0																													#D292F3	False	correct rejection	None	517.3912048339844		21	6	1back_single_main	1																									OA04	yes	yes	no	2024-08-28_08h04.29.593	EXNAT_3_training	2024.1.0	2024-08-28 08h13.29.847142 +0200	
						3	0	3	0																													#2AB7EF	False	correct rejection	None	619.297981262207		22	6	1back_single_main	1																									OA04	yes	yes	no	2024-08-28_08h04.29.593	EXNAT_3_training	2024.1.0	2024-08-28 08h13.29.847142 +0200	
						3	0	3	0																													#F989A2	False	correct rejection	None	517.3649787902832		23	6	1back_single_main	1																									OA04	yes	yes	no	2024-08-28_08h04.29.593	EXNAT_3_training	2024.1.0	2024-08-28 08h13.29.847142 +0200	
						3	0	3	0																													#88BA3F	False	correct rejection	None	550.7738590240479		24	6	1back_single_main	1																									OA04	yes	yes	no	2024-08-28_08h04.29.593	EXNAT_3_training	2024.1.0	2024-08-28 08h13.29.847142 +0200	
						3	0	3	0																													#F989A2	False	correct rejection	None	717.7770137786865		25	6	1back_single_main	1																									OA04	yes	yes	no	2024-08-28_08h04.29.593	EXNAT_3_training	2024.1.0	2024-08-28 08h13.29.847142 +0200	
						3	0	3	0																													#D292F3	False	correct rejection	None	550.774097442627		26	6	1back_single_main	1																									OA04	yes	yes	no	2024-08-28_08h04.29.593	EXNAT_3_training	2024.1.0	2024-08-28 08h13.29.847142 +0200	
						3	0	3	0																													#D292F3	True	hit	549.1340160369873	1000.006914138794		27	6	1back_single_main	1																									OA04	yes	yes	no	2024-08-28_08h04.29.593	EXNAT_3_training	2024.1.0	2024-08-28 08h13.29.847142 +0200	
						3	0	3	0																													#2AB7EF	False	correct rejection	None	550.7869720458984		28	6	1back_single_main	1																									OA04	yes	yes	no	2024-08-28_08h04.29.593	EXNAT_3_training	2024.1.0	2024-08-28 08h13.29.847142 +0200	
						3	0	3	0																													#F989A2	False	correct rejection	None	652.7090072631836		29	6	1back_single_main	1																									OA04	yes	yes	no	2024-08-28_08h04.29.593	EXNAT_3_training	2024.1.0	2024-08-28 08h13.29.847142 +0200	
						3	0	3	0																													#D292F3	False	correct rejection	None	801.2521266937256		30	6	1back_single_main	1																									OA04	yes	yes	no	2024-08-28_08h04.29.593	EXNAT_3_training	2024.1.0	2024-08-28 08h13.29.847142 +0200	
						3	0	3	0																													#88BA3F	False	correct rejection	None	634.2768669128418		31	6	1back_single_main	1																									OA04	yes	yes	no	2024-08-28_08h04.29.593	EXNAT_3_training	2024.1.0	2024-08-28 08h13.29.847142 +0200	
						3	0	3	0																													#2AB7EF	False	correct rejection	None	517.3830986022949		32	6	1back_single_main	1																									OA04	yes	yes	no	2024-08-28_08h04.29.593	EXNAT_3_training	2024.1.0	2024-08-28 08h13.29.847142 +0200	
						3	0	3	0																													#F989A2	False	correct rejection	None	600.8739471435547		33	6	1back_single_main	1																									OA04	yes	yes	no	2024-08-28_08h04.29.593	EXNAT_3_training	2024.1.0	2024-08-28 08h13.29.847142 +0200	
						3	0	3	0																													#88BA3F	False	correct rejection	None	584.1770172119141		34	6	1back_single_main	1																									OA04	yes	yes	no	2024-08-28_08h04.29.593	EXNAT_3_training	2024.1.0	2024-08-28 08h13.29.847142 +0200	
						3	0	3	0																													#88BA3F	True	hit	483.99996757507324	884.7730159759521		35	6	1back_single_main	1																									OA04	yes	yes	no	2024-08-28_08h04.29.593	EXNAT_3_training	2024.1.0	2024-08-28 08h13.29.847142 +0200	
						3	0	3	0																													#F989A2	False	correct rejection	None	567.4920082092285		36	6	1back_single_main	1																									OA04	yes	yes	no	2024-08-28_08h04.29.593	EXNAT_3_training	2024.1.0	2024-08-28 08h13.29.847142 +0200	
						3	0	3	0																													#D292F3	False	correct rejection	None	567.4958229064941		37	6	1back_single_main	1																									OA04	yes	yes	no	2024-08-28_08h04.29.593	EXNAT_3_training	2024.1.0	2024-08-28 08h13.29.847142 +0200	
						3	0	3	0																													#F989A2	False	correct rejection	None	585.9179496765137		38	6	1back_single_main	1																									OA04	yes	yes	no	2024-08-28_08h04.29.593	EXNAT_3_training	2024.1.0	2024-08-28 08h13.29.847142 +0200	
						3	0	3	0																													#88BA3F	False	correct rejection	None	650.9630680084229		39	6	1back_single_main	1																									OA04	yes	yes	no	2024-08-28_08h04.29.593	EXNAT_3_training	2024.1.0	2024-08-28 08h13.29.847142 +0200	
						3	0	3	0																													#2AB7EF	False	correct rejection	None	584.1770172119141		40	6	1back_single_main	1																									OA04	yes	yes	no	2024-08-28_08h04.29.593	EXNAT_3_training	2024.1.0	2024-08-28 08h13.29.847142 +0200	
						3	0	3	0																													#D292F3	False	correct rejection	None	600.8749008178711		41	6	1back_single_main	1																									OA04	yes	yes	no	2024-08-28_08h04.29.593	EXNAT_3_training	2024.1.0	2024-08-28 08h13.29.847142 +0200	
						3	0	3	0																													#D292F3	True	hit	582.5221538543701	966.6051864624023		42	6	1back_single_main	1																									OA04	yes	yes	no	2024-08-28_08h04.29.593	EXNAT_3_training	2024.1.0	2024-08-28 08h13.29.847142 +0200	
						3	0	3	0																													#2AB7EF	False	correct rejection	None	500.6880760192871		43	6	1back_single_main	1																									OA04	yes	yes	no	2024-08-28_08h04.29.593	EXNAT_3_training	2024.1.0	2024-08-28 08h13.29.847142 +0200	
						3	0	3	0																													#88BA3F	False	correct rejection	None	535.8180999755859		44	6	1back_single_main	1																									OA04	yes	yes	no	2024-08-28_08h04.29.593	EXNAT_3_training	2024.1.0	2024-08-28 08h13.29.847142 +0200	
						3	0	3	0																													#88BA3F	True	miss	None	901.4339447021484		45	6	1back_single_main	1																									OA04	yes	yes	no	2024-08-28_08h04.29.593	EXNAT_3_training	2024.1.0	2024-08-28 08h13.29.847142 +0200	
						3	0	3	0																													#F989A2	False	correct rejection	None	483.9909076690674		46	6	1back_single_main	1																									OA04	yes	yes	no	2024-08-28_08h04.29.593	EXNAT_3_training	2024.1.0	2024-08-28 08h13.29.847142 +0200	
						3	0	3	0																													#D292F3	False	correct rejection	None	584.1929912567139		47	6	1back_single_main	1																									OA04	yes	yes	no	2024-08-28_08h04.29.593	EXNAT_3_training	2024.1.0	2024-08-28 08h13.29.847142 +0200	
						3	0	3	0																													#2AB7EF	False	correct rejection	None	500.6840229034424		48	6	1back_single_main	1																									OA04	yes	yes	no	2024-08-28_08h04.29.593	EXNAT_3_training	2024.1.0	2024-08-28 08h13.29.847142 +0200	
						3	0	3	0																													#D292F3	False	correct rejection	None	784.5680713653564		49	6	1back_single_main	1																									OA04	yes	yes	no	2024-08-28_08h04.29.593	EXNAT_3_training	2024.1.0	2024-08-28 08h13.29.847142 +0200	
						3	0	3	0																													#2AB7EF	False	correct rejection	None	968.2819843292236		50	6	1back_single_main	1																									OA04	yes	yes	no	2024-08-28_08h04.29.593	EXNAT_3_training	2024.1.0	2024-08-28 08h13.29.847142 +0200	
						3	0	3	0																													#D292F3	False	correct rejection	None	816.2319660186768		51	6	1back_single_main	1																									OA04	yes	yes	no	2024-08-28_08h04.29.593	EXNAT_3_training	2024.1.0	2024-08-28 08h13.29.847142 +0200	
						3	0	3	0																													#2AB7EF	False	correct rejection	None	751.1801719665527		52	6	1back_single_main	1																									OA04	yes	yes	no	2024-08-28_08h04.29.593	EXNAT_3_training	2024.1.0	2024-08-28 08h13.29.847142 +0200	
						3	0	3	0																													#2AB7EF	True	hit	584.1507911682129	968.2269096374512		53	6	1back_single_main	1																									OA04	yes	yes	no	2024-08-28_08h04.29.593	EXNAT_3_training	2024.1.0	2024-08-28 08h13.29.847142 +0200	
						3	0	3	0																													#F989A2	False	correct rejection	None	450.5929946899414		54	6	1back_single_main	1																									OA04	yes	yes	no	2024-08-28_08h04.29.593	EXNAT_3_training	2024.1.0	2024-08-28 08h13.29.847142 +0200	
						3	0	3	0																													#F989A2	True	hit	584.1829776763916	901.4627933502197		55	6	1back_single_main	1																									OA04	yes	yes	no	2024-08-28_08h04.29.593	EXNAT_3_training	2024.1.0	2024-08-28 08h13.29.847142 +0200	
						3	0	3	0																													#88BA3F	False	correct rejection	None	483.98900032043457		56	6	1back_single_main	1																									OA04	yes	yes	no	2024-08-28_08h04.29.593	EXNAT_3_training	2024.1.0	2024-08-28 08h13.29.847142 +0200	
						3	0	3	0																													#D292F3	False	correct rejection	None	517.3828601837158		57	6	1back_single_main	1																									OA04	yes	yes	no	2024-08-28_08h04.29.593	EXNAT_3_training	2024.1.0	2024-08-28 08h13.29.847142 +0200	
						3	0	3	0																													#F989A2	False	correct rejection	None	684.3810081481934		58	6	1back_single_main	1																									OA04	yes	yes	no	2024-08-28_08h04.29.593	EXNAT_3_training	2024.1.0	2024-08-28 08h13.29.847142 +0200	
						3	0	3	0																													#88BA3F	False	correct rejection	None	485.7039451599121		59	6	1back_single_main	1																									OA04	yes	yes	no	2024-08-28_08h04.29.593	EXNAT_3_training	2024.1.0	2024-08-28 08h13.29.847142 +0200	
						3	0	3	0																													#88BA3F	True	hit	650.4719257354736	1151.9370079040527		60	6	1back_single_main	1																									OA04	yes	yes	no	2024-08-28_08h04.29.593	EXNAT_3_training	2024.1.0	2024-08-28 08h13.29.847142 +0200	
						3	0	3	0																											649.9321131706238	649.9321219921112	#88BA3F	False	correct rejection	None	1466.8989181518555	text_01	1	7	1back_dual_main_click	1	Ältere																								OA04	yes	yes	no	2024-08-28_08h04.29.593	EXNAT_3_training	2024.1.0	2024-08-28 08h13.29.847142 +0200	
						3	0	3	0																													#D292F3	False	correct rejection	None	1031.954050064087	text_01	2	7	1back_dual_main_click	1	Leitkühe																								OA04	yes	yes	no	2024-08-28_08h04.29.593	EXNAT_3_training	2024.1.0	2024-08-28 08h13.29.847142 +0200	
						3	0	3	0																													#2AB7EF	False	correct rejection	None	999.2189407348633	text_01	3	7	1back_dual_main_click	1	treffen																								OA04	yes	yes	no	2024-08-28_08h04.29.593	EXNAT_3_training	2024.1.0	2024-08-28 08h13.29.847142 +0200	
						3	0	3	0																													#88BA3F	False	correct rejection	None	848.8709926605225	text_01	4	7	1back_dual_main_click	1	bessere																								OA04	yes	yes	no	2024-08-28_08h04.29.593	EXNAT_3_training	2024.1.0	2024-08-28 08h13.29.847142 +0200	
						3	0	3	0																													#F989A2	False	correct rejection	None	864.9210929870605	text_01	5	7	1back_dual_main_click	1	Entscheidungen																								OA04	yes	yes	no	2024-08-28_08h04.29.593	EXNAT_3_training	2024.1.0	2024-08-28 08h13.29.847142 +0200	
						3	0	3	0																													#D292F3	False	correct rejection	None	1015.0198936462402	text_01	6	7	1back_dual_main_click	1	für																								OA04	yes	yes	no	2024-08-28_08h04.29.593	EXNAT_3_training	2024.1.0	2024-08-28 08h13.29.847142 +0200	
						3	0	3	0																													#88BA3F	False	correct rejection	None	849.1020202636719	text_01	7	7	1back_dual_main_click	1	ihre																								OA04	yes	yes	no	2024-08-28_08h04.29.593	EXNAT_3_training	2024.1.0	2024-08-28 08h13.29.847142 +0200	
						3	0	3	0																													#D292F3	False	correct rejection	None	765.4330730438232	text_01	8	7	1back_dual_main_click	1	"Herde,"																								OA04	yes	yes	no	2024-08-28_08h04.29.593	EXNAT_3_training	2024.1.0	2024-08-28 08h13.29.847142 +0200	
