DisplayImage	corrAns	ishihara_pics.thisRepN	ishihara_pics.thisTrialN	ishihara_pics.thisN	ishihara_pics.thisIndex	blocks.thisRepN	blocks.thisTrialN	blocks.thisN	blocks.thisIndex	thisRow.t	notes	Settings.started	Settings.stopped	demographics.started	demographics.stopped	demographic_form.index	demographic_form.itemText	demographic_form.type	demographic_form.font	demographic_form.markerColor	demographic_form.response	demographic_form.rt	education.started	education.stopped	edu_form.index	edu_form.itemText	edu_form.type	edu_form.font	edu_form.markerColor	edu_form.response	edu_form.rt	Ishihara.started	Ishihara.stopped	ishihara_number.text	no_text_blocks_self_paced.started	no_text_blocks_self_paced.stopped	text_blocks_self_paced.started	colour	target	nback_response	nback_RT	duration	text_nr	trial_nr	block_nr	block_name	block_kind	word	global_onset_time	question	button_pressed	chosen_ans	ans_correct	block_nr_exp	n-back_level	text_blocks_self_paced.stopped	text_blocks_paced.started	text_blocks_paced.stopped	no_text_blocks_paced.started	no_text_blocks_paced.stopped	pseudotext.started	pseudotext.stopped	curr_0back_target	RT_per_letter_baseline	RT_per_letter_0back	RT_per_letter_1bck	RT_per_letter_2bck	RT_per_rect_1back_single	RT_per_rect_2back_single	end.started	end.stopped	participant	self-paced_blocks	paced_blocks	testing_mode	date	expName	psychopyVersion	expStart	
												0.02881002426147461	0.02910304069519043																																																											OA05	yes	yes	no	2024-08-28_10h12.02.490	EXNAT_3_training	2024.1.0	2024-08-28 11h07.26.326570 +0200	
														0.029118061065673828	170.50784707069397	0.0	Willkommen zum Experiment!	heading	None	None																																																				OA05	yes	yes	no	2024-08-28_10h12.02.490	EXNAT_3_training	2024.1.0	2024-08-28 11h07.26.326570 +0200	
																0.0	Bitte beantworten Sie zunächst die folgenden Fragen:	description	None	None																																																				OA05	yes	yes	no	2024-08-28_10h12.02.490	EXNAT_3_training	2024.1.0	2024-08-28 11h07.26.326570 +0200	
																gender	Welches Geschlecht steht in Ihrem Ausweis?	radio	None	None	Weiblich	133.0221619606018																																																		OA05	yes	yes	no	2024-08-28_10h12.02.490	EXNAT_3_training	2024.1.0	2024-08-28 11h07.26.326570 +0200	
																age	Wie alt sind Sie?	free text	None	None	75 Jahre	None																																																		OA05	yes	yes	no	2024-08-28_10h12.02.490	EXNAT_3_training	2024.1.0	2024-08-28 11h07.26.326570 +0200	
																language	Ist Deutsch Ihre Muttersprache?	radio	None	None	Ja	143.66723895072937																																																		OA05	yes	yes	no	2024-08-28_10h12.02.490	EXNAT_3_training	2024.1.0	2024-08-28 11h07.26.326570 +0200	
																dyslexia	Haben Sie eine Leseschwäche?	radio	None	None	Nein	154.42280101776123																																																		OA05	yes	yes	no	2024-08-28_10h12.02.490	EXNAT_3_training	2024.1.0	2024-08-28 11h07.26.326570 +0200	
																vision_glasses	Tragen Sie eine Brille?	radio	None	None	Ja	20.00860905647278																																																		OA05	yes	yes	no	2024-08-28_10h12.02.490	EXNAT_3_training	2024.1.0	2024-08-28 11h07.26.326570 +0200	
																vision_lenses	Tragen Sie Kontaktlinsen?	radio	None	None	Nein	16.635243892669678																																																		OA05	yes	yes	no	2024-08-28_10h12.02.490	EXNAT_3_training	2024.1.0	2024-08-28 11h07.26.326570 +0200	
																handedness	Sind Sie rechtshändig?	radio	None	None	Ja	11.800262928009033																																																		OA05	yes	yes	no	2024-08-28_10h12.02.490	EXNAT_3_training	2024.1.0	2024-08-28 11h07.26.326570 +0200	
																																																																								OA05	yes	yes	no	2024-08-28_10h12.02.490	EXNAT_3_training	2024.1.0	2024-08-28 11h07.26.326570 +0200	
																							170.5080099105835	303.61708402633667	0.0	Bitte beantworten Sie die folgenden Fragen zu Ihrer Ausbildung:	description	None	None																																											OA05	yes	yes	no	2024-08-28_10h12.02.490	EXNAT_3_training	2024.1.0	2024-08-28 11h07.26.326570 +0200	
																									education	Was ist Ihr höchster Bildungsabschluss?	radio	None	None	abgeschlossenes Studium	8.456552028656006																																									OA05	yes	yes	no	2024-08-28_10h12.02.490	EXNAT_3_training	2024.1.0	2024-08-28 11h07.26.326570 +0200	
																									edu_intro	Wie viele Jahre verbrachten Sie insgesamt mit:	description	None	None																																											OA05	yes	yes	no	2024-08-28_10h12.02.490	EXNAT_3_training	2024.1.0	2024-08-28 11h07.26.326570 +0200	
																									edu_school_years	Schule	free text	None	None	10	None																																									OA05	yes	yes	no	2024-08-28_10h12.02.490	EXNAT_3_training	2024.1.0	2024-08-28 11h07.26.326570 +0200	
																									edu_eveningschool_years	Abendschule	free text	None	None	o	None																																									OA05	yes	yes	no	2024-08-28_10h12.02.490	EXNAT_3_training	2024.1.0	2024-08-28 11h07.26.326570 +0200	
																									edu_training_years	Ausbildung	free text	None	None	"Facharbeiter 2,5 Jahre"	None																																									OA05	yes	yes	no	2024-08-28_10h12.02.490	EXNAT_3_training	2024.1.0	2024-08-28 11h07.26.326570 +0200	
																									edu_training_GDR_years	Fachschule	free text	None	None	5 JAHRE	None																																									OA05	yes	yes	no	2024-08-28_10h12.02.490	EXNAT_3_training	2024.1.0	2024-08-28 11h07.26.326570 +0200	
																									edu_uni_years	Universität/Hochschule	free text	None	None	0	None																																									OA05	yes	yes	no	2024-08-28_10h12.02.490	EXNAT_3_training	2024.1.0	2024-08-28 11h07.26.326570 +0200	
																									edu_other_years	Sonstiges	free text	None	None	0	None																																									OA05	yes	yes	no	2024-08-28_10h12.02.490	EXNAT_3_training	2024.1.0	2024-08-28 11h07.26.326570 +0200	
																									edu_profession	Was ist Ihr derzeitiger/letzter Beruf?	free text	None	None	Referentin 	None																																									OA05	yes	yes	no	2024-08-28_10h12.02.490	EXNAT_3_training	2024.1.0	2024-08-28 11h07.26.326570 +0200	
																																																																								OA05	yes	yes	no	2024-08-28_10h12.02.490	EXNAT_3_training	2024.1.0	2024-08-28 11h07.26.326570 +0200	
																																																																								OA05	yes	yes	no	2024-08-28_10h12.02.490	EXNAT_3_training	2024.1.0	2024-08-28 11h07.26.326570 +0200	
Stimuli_and_Resources/Ishihara_Colour_Vision_Test/ishihara_test6_15.png	15	0	0	0	5					309.4942719936371																						309.43565607070923	314.286593914032	15																																						OA05	yes	yes	no	2024-08-28_10h12.02.490	EXNAT_3_training	2024.1.0	2024-08-28 11h07.26.326570 +0200	
Stimuli_and_Resources/Ishihara_Colour_Vision_Test/ishihara_test1_70.png	70	0	1	1	0					315.3377070426941																						315.2881989479065	319.1127278804779	70																																						OA05	yes	yes	no	2024-08-28_10h12.02.490	EXNAT_3_training	2024.1.0	2024-08-28 11h07.26.326570 +0200	
Stimuli_and_Resources/Ishihara_Colour_Vision_Test/ishihara_test3_21.png	21	0	2	2	2					320.1637489795685																						320.1142258644104	323.3208909034729	21																																						OA05	yes	yes	no	2024-08-28_10h12.02.490	EXNAT_3_training	2024.1.0	2024-08-28 11h07.26.326570 +0200	
Stimuli_and_Resources/Ishihara_Colour_Vision_Test/ishihara_test5_23.png	23	0	3	3	4					324.3719789981842																						324.3224148750305	326.5437788963318	23																																						OA05	yes	yes	no	2024-08-28_10h12.02.490	EXNAT_3_training	2024.1.0	2024-08-28 11h07.26.326570 +0200	
Stimuli_and_Resources/Ishihara_Colour_Vision_Test/ishihara_test2_17.png	17	0	4	4	1					327.59620094299316																						327.54653692245483	330.4013440608978	17																																						OA05	yes	yes	no	2024-08-28_10h12.02.490	EXNAT_3_training	2024.1.0	2024-08-28 11h07.26.326570 +0200	
Stimuli_and_Resources/Ishihara_Colour_Vision_Test/ishihara_test4_78.png	78	0	5	5	3					331.45262694358826																						331.40288400650024	334.461030960083	78																																						OA05	yes	yes	no	2024-08-28_10h12.02.490	EXNAT_3_training	2024.1.0	2024-08-28 11h07.26.326570 +0200	
						0	0	0	0	335.4771840572357																									335.4614360332489	335.47731494903564	335.47732496261597	#D292F3	None	None	None	1500	reading_bl_training_text	1	0	Reading_Baseline_training_click	None	Auf																								OA05	yes	yes	no	2024-08-28_10h12.02.490	EXNAT_3_training	2024.1.0	2024-08-28 11h07.26.326570 +0200	
						0	0	0	0																													#D292F3	None	None	None	1500	reading_bl_training_text	2	0	Reading_Baseline_training_click	None	dem																								OA05	yes	yes	no	2024-08-28_10h12.02.490	EXNAT_3_training	2024.1.0	2024-08-28 11h07.26.326570 +0200	
						0	0	0	0																													#88BA3F	None	None	None	1500	reading_bl_training_text	3	0	Reading_Baseline_training_click	None	großen																								OA05	yes	yes	no	2024-08-28_10h12.02.490	EXNAT_3_training	2024.1.0	2024-08-28 11h07.26.326570 +0200	
						0	0	0	0																													#2AB7EF	None	None	None	1500	reading_bl_training_text	4	0	Reading_Baseline_training_click	None	"Passagierdampfer,"																								OA05	yes	yes	no	2024-08-28_10h12.02.490	EXNAT_3_training	2024.1.0	2024-08-28 11h07.26.326570 +0200	
						0	0	0	0																													#2AB7EF	None	None	None	1450.8259296417236	reading_bl_training_text	5	0	Reading_Baseline_training_click	None	der																								OA05	yes	yes	no	2024-08-28_10h12.02.490	EXNAT_3_training	2024.1.0	2024-08-28 11h07.26.326570 +0200	
						0	0	0	0																													#F989A2	None	None	None	1500	reading_bl_training_text	6	0	Reading_Baseline_training_click	None	um																								OA05	yes	yes	no	2024-08-28_10h12.02.490	EXNAT_3_training	2024.1.0	2024-08-28 11h07.26.326570 +0200	
						0	0	0	0																													#2AB7EF	None	None	None	263.4010314941406	reading_bl_training_text	7	0	Reading_Baseline_training_click	None	Mitternacht																								OA05	yes	yes	no	2024-08-28_10h12.02.490	EXNAT_3_training	2024.1.0	2024-08-28 11h07.26.326570 +0200	
						0	0	0	0																													#88BA3F	None	None	None	882.8680515289307	reading_bl_training_text	8	0	Reading_Baseline_training_click	None	von																								OA05	yes	yes	no	2024-08-28_10h12.02.490	EXNAT_3_training	2024.1.0	2024-08-28 11h07.26.326570 +0200	
						0	0	0	0																													#F989A2	None	None	None	799.5078563690186	reading_bl_training_text	9	0	Reading_Baseline_training_click	None	New																								OA05	yes	yes	no	2024-08-28_10h12.02.490	EXNAT_3_training	2024.1.0	2024-08-28 11h07.26.326570 +0200	
						0	0	0	0																													#F989A2	None	None	None	914.2248630523682	reading_bl_training_text	10	0	Reading_Baseline_training_click	None	York																								OA05	yes	yes	no	2024-08-28_10h12.02.490	EXNAT_3_training	2024.1.0	2024-08-28 11h07.26.326570 +0200	
						0	0	0	0																													#D292F3	None	None	None	749.4449615478516	reading_bl_training_text	11	0	Reading_Baseline_training_click	None	nach																								OA05	yes	yes	no	2024-08-28_10h12.02.490	EXNAT_3_training	2024.1.0	2024-08-28 11h07.26.326570 +0200	
						0	0	0	0																													#88BA3F	None	None	None	850.4679203033447	reading_bl_training_text	12	0	Reading_Baseline_training_click	None	Buenos																								OA05	yes	yes	no	2024-08-28_10h12.02.490	EXNAT_3_training	2024.1.0	2024-08-28 11h07.26.326570 +0200	
						0	0	0	0																													#D292F3	None	None	None	832.305908203125	reading_bl_training_text	13	0	Reading_Baseline_training_click	None	Aires																								OA05	yes	yes	no	2024-08-28_10h12.02.490	EXNAT_3_training	2024.1.0	2024-08-28 11h07.26.326570 +0200	
						0	0	0	0																													#88BA3F	None	None	None	1382.951021194458	reading_bl_training_text	14	0	Reading_Baseline_training_click	None	abgehen																								OA05	yes	yes	no	2024-08-28_10h12.02.490	EXNAT_3_training	2024.1.0	2024-08-28 11h07.26.326570 +0200	
						0	0	0	0																													#F989A2	None	None	None	999.5129108428955	reading_bl_training_text	15	0	Reading_Baseline_training_click	None	"sollte,"																								OA05	yes	yes	no	2024-08-28_10h12.02.490	EXNAT_3_training	2024.1.0	2024-08-28 11h07.26.326570 +0200	
						0	0	0	0																													#88BA3F	None	None	None	948.8530158996582	reading_bl_training_text	16	0	Reading_Baseline_training_click	None	herrschte																								OA05	yes	yes	no	2024-08-28_10h12.02.490	EXNAT_3_training	2024.1.0	2024-08-28 11h07.26.326570 +0200	
						0	0	0	0																													#F989A2	None	None	None	715.1880264282227	reading_bl_training_text	17	0	Reading_Baseline_training_click	None	geschäftiges																								OA05	yes	yes	no	2024-08-28_10h12.02.490	EXNAT_3_training	2024.1.0	2024-08-28 11h07.26.326570 +0200	
						0	0	0	0																													#88BA3F	None	None	None	698.3249187469482	reading_bl_training_text	18	0	Reading_Baseline_training_click	None	Treiben.																								OA05	yes	yes	no	2024-08-28_10h12.02.490	EXNAT_3_training	2024.1.0	2024-08-28 11h07.26.326570 +0200	
						0	0	0	0																													#D292F3	None	None	None	715.6410217285156	reading_bl_training_text	19	0	Reading_Baseline_training_click	None	Einige																								OA05	yes	yes	no	2024-08-28_10h12.02.490	EXNAT_3_training	2024.1.0	2024-08-28 11h07.26.326570 +0200	
						0	0	0	0																													#2AB7EF	None	None	None	815.5200481414795	reading_bl_training_text	20	0	Reading_Baseline_training_click	None	Reporter																								OA05	yes	yes	no	2024-08-28_10h12.02.490	EXNAT_3_training	2024.1.0	2024-08-28 11h07.26.326570 +0200	
						0	0	0	0																													#F989A2	None	None	None	848.9329814910889	reading_bl_training_text	21	0	Reading_Baseline_training_click	None	interviewten																								OA05	yes	yes	no	2024-08-28_10h12.02.490	EXNAT_3_training	2024.1.0	2024-08-28 11h07.26.326570 +0200	
						0	0	0	0																													#2AB7EF	None	None	None	1083.9359760284424	reading_bl_training_text	22	0	Reading_Baseline_training_click	None	den																								OA05	yes	yes	no	2024-08-28_10h12.02.490	EXNAT_3_training	2024.1.0	2024-08-28 11h07.26.326570 +0200	
						0	0	0	0																													#D292F3	None	None	None	765.416145324707	reading_bl_training_text	23	0	Reading_Baseline_training_click	None	berühmten																								OA05	yes	yes	no	2024-08-28_10h12.02.490	EXNAT_3_training	2024.1.0	2024-08-28 11h07.26.326570 +0200	
						0	0	0	0																													#2AB7EF	None	None	None	1282.3469638824463	reading_bl_training_text	24	0	Reading_Baseline_training_click	None	Weltschachmeister																								OA05	yes	yes	no	2024-08-28_10h12.02.490	EXNAT_3_training	2024.1.0	2024-08-28 11h07.26.326570 +0200	
						0	0	0	0																													#2AB7EF	None	None	None	1217.1108722686768	reading_bl_training_text	25	0	Reading_Baseline_training_click	None	Mirko																								OA05	yes	yes	no	2024-08-28_10h12.02.490	EXNAT_3_training	2024.1.0	2024-08-28 11h07.26.326570 +0200	
						0	0	0	0																													#2AB7EF	None	None	None	1500	reading_bl_training_text	26	0	Reading_Baseline_training_click	None	"Czentovic,"																								OA05	yes	yes	no	2024-08-28_10h12.02.490	EXNAT_3_training	2024.1.0	2024-08-28 11h07.26.326570 +0200	
						0	0	0	0																													#88BA3F	None	None	None	1551.00679397583	reading_bl_training_text	27	0	Reading_Baseline_training_click	None	der																								OA05	yes	yes	no	2024-08-28_10h12.02.490	EXNAT_3_training	2024.1.0	2024-08-28 11h07.26.326570 +0200	
						0	0	0	0																													#D292F3	None	None	None	1133.5301399230957	reading_bl_training_text	28	0	Reading_Baseline_training_click	None	nach																								OA05	yes	yes	no	2024-08-28_10h12.02.490	EXNAT_3_training	2024.1.0	2024-08-28 11h07.26.326570 +0200	
						0	0	0	0																													#F989A2	None	None	None	949.6059417724609	reading_bl_training_text	29	0	Reading_Baseline_training_click	None	Argentinien																								OA05	yes	yes	no	2024-08-28_10h12.02.490	EXNAT_3_training	2024.1.0	2024-08-28 11h07.26.326570 +0200	
						0	0	0	0																													#88BA3F	None	None	None	1116.5149211883545	reading_bl_training_text	30	0	Reading_Baseline_training_click	None	reiste.																								OA05	yes	yes	no	2024-08-28_10h12.02.490	EXNAT_3_training	2024.1.0	2024-08-28 11h07.26.326570 +0200	
						0	0	0	0																																		reading_bl_training_text			Reading_Baseline_training_click			403.44598507881165	Q1	1	a	True	1	None																	OA05	yes	yes	no	2024-08-28_10h12.02.490	EXNAT_3_training	2024.1.0	2024-08-28 11h07.26.326570 +0200	
						0	0	0	0																																		reading_bl_training_text			Reading_Baseline_training_click			413.96514892578125	Q2	3	c	True	1	None																	OA05	yes	yes	no	2024-08-28_10h12.02.490	EXNAT_3_training	2024.1.0	2024-08-28 11h07.26.326570 +0200	
						0	0	0	0																																		reading_bl_training_text			Reading_Baseline_training_click			420.13959884643555	Q3	1	a	True	1	None																	OA05	yes	yes	no	2024-08-28_10h12.02.490	EXNAT_3_training	2024.1.0	2024-08-28 11h07.26.326570 +0200	
						0	0	0	0																																															425.78926491737366	425.78928399086	425.828332901001	425.8283460140228	425.8382649421692	425.8382740020752	425.8554148674011										OA05	yes	yes	no	2024-08-28_10h12.02.490	EXNAT_3_training	2024.1.0	2024-08-28 11h07.26.326570 +0200	
						1	0	1	0	425.87157702445984																									425.855731010437	425.8716208934784	425.87162804603577	#88BA3F	None	None	None	849.7591018676758	text_01	1	1	Reading_Baseline_main_click	None	Ältere																								OA05	yes	yes	no	2024-08-28_10h12.02.490	EXNAT_3_training	2024.1.0	2024-08-28 11h07.26.326570 +0200	
						1	0	1	0																													#2AB7EF	None	None	None	546.0450649261475	text_01	2	1	Reading_Baseline_main_click	None	Leitkühe																								OA05	yes	yes	no	2024-08-28_10h12.02.490	EXNAT_3_training	2024.1.0	2024-08-28 11h07.26.326570 +0200	
						1	0	1	0																													#88BA3F	None	None	None	631.8390369415283	text_01	3	1	Reading_Baseline_main_click	None	treffen																								OA05	yes	yes	no	2024-08-28_10h12.02.490	EXNAT_3_training	2024.1.0	2024-08-28 11h07.26.326570 +0200	
						1	0	1	0																													#2AB7EF	None	None	None	581.8119049072266	text_01	4	1	Reading_Baseline_main_click	None	bessere																								OA05	yes	yes	no	2024-08-28_10h12.02.490	EXNAT_3_training	2024.1.0	2024-08-28 11h07.26.326570 +0200	
						1	0	1	0																													#D292F3	None	None	None	682.844877243042	text_01	5	1	Reading_Baseline_main_click	None	Entscheidungen																								OA05	yes	yes	no	2024-08-28_10h12.02.490	EXNAT_3_training	2024.1.0	2024-08-28 11h07.26.326570 +0200	
						1	0	1	0																													#2AB7EF	None	None	None	615.8969402313232	text_01	6	1	Reading_Baseline_main_click	None	für																								OA05	yes	yes	no	2024-08-28_10h12.02.490	EXNAT_3_training	2024.1.0	2024-08-28 11h07.26.326570 +0200	
						1	0	1	0																													#D292F3	None	None	None	582.4289321899414	text_01	7	1	Reading_Baseline_main_click	None	ihre																								OA05	yes	yes	no	2024-08-28_10h12.02.490	EXNAT_3_training	2024.1.0	2024-08-28 11h07.26.326570 +0200	
						1	0	1	0																													#F989A2	None	None	None	564.0599727630615	text_01	8	1	Reading_Baseline_main_click	None	"Herde,"																								OA05	yes	yes	no	2024-08-28_10h12.02.490	EXNAT_3_training	2024.1.0	2024-08-28 11h07.26.326570 +0200	
						1	0	1	0																													#F989A2	None	None	None	548.1131076812744	text_01	9	1	Reading_Baseline_main_click	None	als																								OA05	yes	yes	no	2024-08-28_10h12.02.490	EXNAT_3_training	2024.1.0	2024-08-28 11h07.26.326570 +0200	
						1	0	1	0																													#F989A2	None	None	None	548.0589866638184	text_01	10	1	Reading_Baseline_main_click	None	junge.																								OA05	yes	yes	no	2024-08-28_10h12.02.490	EXNAT_3_training	2024.1.0	2024-08-28 11h07.26.326570 +0200	
						1	0	1	0																													#88BA3F	None	None	None	515.5940055847168	text_01	11	1	Reading_Baseline_main_click	None	Die																								OA05	yes	yes	no	2024-08-28_10h12.02.490	EXNAT_3_training	2024.1.0	2024-08-28 11h07.26.326570 +0200	
						1	0	1	0																													#F989A2	None	None	None	531.1188697814941	text_01	12	1	Reading_Baseline_main_click	None	Chefin																								OA05	yes	yes	no	2024-08-28_10h12.02.490	EXNAT_3_training	2024.1.0	2024-08-28 11h07.26.326570 +0200	
						1	0	1	0																													#88BA3F	None	None	None	532.8609943389893	text_01	13	1	Reading_Baseline_main_click	None	der																								OA05	yes	yes	no	2024-08-28_10h12.02.490	EXNAT_3_training	2024.1.0	2024-08-28 11h07.26.326570 +0200	
						1	0	1	0																													#D292F3	None	None	None	498.2719421386719	text_01	14	1	Reading_Baseline_main_click	None	Elefanten																								OA05	yes	yes	no	2024-08-28_10h12.02.490	EXNAT_3_training	2024.1.0	2024-08-28 11h07.26.326570 +0200	
						1	0	1	0																													#88BA3F	None	None	None	498.5988140106201	text_01	15	1	Reading_Baseline_main_click	None	muss																								OA05	yes	yes	no	2024-08-28_10h12.02.490	EXNAT_3_training	2024.1.0	2024-08-28 11h07.26.326570 +0200	
						1	0	1	0																													#F989A2	None	None	None	531.836986541748	text_01	16	1	Reading_Baseline_main_click	None	wichtige																								OA05	yes	yes	no	2024-08-28_10h12.02.490	EXNAT_3_training	2024.1.0	2024-08-28 11h07.26.326570 +0200	
						1	0	1	0																													#2AB7EF	None	None	None	749.3410110473633	text_01	17	1	Reading_Baseline_main_click	None	Entscheidungen																								OA05	yes	yes	no	2024-08-28_10h12.02.490	EXNAT_3_training	2024.1.0	2024-08-28 11h07.26.326570 +0200	
						1	0	1	0																													#88BA3F	None	None	None	515.153169631958	text_01	18	1	Reading_Baseline_main_click	None	für																								OA05	yes	yes	no	2024-08-28_10h12.02.490	EXNAT_3_training	2024.1.0	2024-08-28 11h07.26.326570 +0200	
						1	0	1	0																													#88BA3F	None	None	None	482.27596282958984	text_01	19	1	Reading_Baseline_main_click	None	die																								OA05	yes	yes	no	2024-08-28_10h12.02.490	EXNAT_3_training	2024.1.0	2024-08-28 11h07.26.326570 +0200	
						1	0	1	0																													#F989A2	None	None	None	681.7030906677246	text_01	20	1	Reading_Baseline_main_click	None	Gemeinschaft																								OA05	yes	yes	no	2024-08-28_10h12.02.490	EXNAT_3_training	2024.1.0	2024-08-28 11h07.26.326570 +0200	
						1	0	1	0																													#2AB7EF	None	None	None	499.27210807800293	text_01	21	1	Reading_Baseline_main_click	None	"treffen,"																								OA05	yes	yes	no	2024-08-28_10h12.02.490	EXNAT_3_training	2024.1.0	2024-08-28 11h07.26.326570 +0200	
						1	0	1	0																													#D292F3	None	None	None	665.067195892334	text_01	22	1	Reading_Baseline_main_click	None	beispielsweise																								OA05	yes	yes	no	2024-08-28_10h12.02.490	EXNAT_3_training	2024.1.0	2024-08-28 11h07.26.326570 +0200	
						1	0	1	0																													#F989A2	None	None	None	481.5819263458252	text_01	23	1	Reading_Baseline_main_click	None	wohin																								OA05	yes	yes	no	2024-08-28_10h12.02.490	EXNAT_3_training	2024.1.0	2024-08-28 11h07.26.326570 +0200	
						1	0	1	0																													#2AB7EF	None	None	None	548.2668876647949	text_01	24	1	Reading_Baseline_main_click	None	die																								OA05	yes	yes	no	2024-08-28_10h12.02.490	EXNAT_3_training	2024.1.0	2024-08-28 11h07.26.326570 +0200	
						1	0	1	0																													#88BA3F	None	None	None	448.7571716308594	text_01	25	1	Reading_Baseline_main_click	None	Herde																								OA05	yes	yes	no	2024-08-28_10h12.02.490	EXNAT_3_training	2024.1.0	2024-08-28 11h07.26.326570 +0200	
						1	0	1	0																													#D292F3	None	None	None	482.24902153015137	text_01	26	1	Reading_Baseline_main_click	None	geht																								OA05	yes	yes	no	2024-08-28_10h12.02.490	EXNAT_3_training	2024.1.0	2024-08-28 11h07.26.326570 +0200	
						1	0	1	0																													#D292F3	None	None	None	566.0719871520996	text_01	27	1	Reading_Baseline_main_click	None	oder																								OA05	yes	yes	no	2024-08-28_10h12.02.490	EXNAT_3_training	2024.1.0	2024-08-28 11h07.26.326570 +0200	
						1	0	1	0																													#2AB7EF	None	None	None	432.2080612182617	text_01	28	1	Reading_Baseline_main_click	None	wie																								OA05	yes	yes	no	2024-08-28_10h12.02.490	EXNAT_3_training	2024.1.0	2024-08-28 11h07.26.326570 +0200	
						1	0	1	0																													#D292F3	None	None	None	432.24096298217773	text_01	29	1	Reading_Baseline_main_click	None	man																								OA05	yes	yes	no	2024-08-28_10h12.02.490	EXNAT_3_training	2024.1.0	2024-08-28 11h07.26.326570 +0200	
						1	0	1	0																													#88BA3F	None	None	None	481.78791999816895	text_01	30	1	Reading_Baseline_main_click	None	sich																								OA05	yes	yes	no	2024-08-28_10h12.02.490	EXNAT_3_training	2024.1.0	2024-08-28 11h07.26.326570 +0200	
						1	0	1	0																													#F989A2	None	None	None	448.8050937652588	text_01	31	1	Reading_Baseline_main_click	None	gegen																								OA05	yes	yes	no	2024-08-28_10h12.02.490	EXNAT_3_training	2024.1.0	2024-08-28 11h07.26.326570 +0200	
						1	0	1	0																													#88BA3F	None	None	None	465.40188789367676	text_01	32	1	Reading_Baseline_main_click	None	Löwen																								OA05	yes	yes	no	2024-08-28_10h12.02.490	EXNAT_3_training	2024.1.0	2024-08-28 11h07.26.326570 +0200	
						1	0	1	0																													#F989A2	None	None	None	464.493989944458	text_01	33	1	Reading_Baseline_main_click	None	verteidigt.																								OA05	yes	yes	no	2024-08-28_10h12.02.490	EXNAT_3_training	2024.1.0	2024-08-28 11h07.26.326570 +0200	
						1	0	1	0																													#2AB7EF	None	None	None	748.5518455505371	text_01	34	1	Reading_Baseline_main_click	None	Biologen																								OA05	yes	yes	no	2024-08-28_10h12.02.490	EXNAT_3_training	2024.1.0	2024-08-28 11h07.26.326570 +0200	
						1	0	1	0																													#F989A2	None	None	None	565.3669834136963	text_01	35	1	Reading_Baseline_main_click	None	konnten																								OA05	yes	yes	no	2024-08-28_10h12.02.490	EXNAT_3_training	2024.1.0	2024-08-28 11h07.26.326570 +0200	
						1	0	1	0																													#2AB7EF	None	None	None	481.7969799041748	text_01	36	1	Reading_Baseline_main_click	None	in																								OA05	yes	yes	no	2024-08-28_10h12.02.490	EXNAT_3_training	2024.1.0	2024-08-28 11h07.26.326570 +0200	
						1	0	1	0																													#88BA3F	None	None	None	430.4180145263672	text_01	37	1	Reading_Baseline_main_click	None	Kenia																								OA05	yes	yes	no	2024-08-28_10h12.02.490	EXNAT_3_training	2024.1.0	2024-08-28 11h07.26.326570 +0200	
						1	0	1	0																													#F989A2	None	None	None	364.70603942871094	text_01	38	1	Reading_Baseline_main_click	None	"zeigen,"																								OA05	yes	yes	no	2024-08-28_10h12.02.490	EXNAT_3_training	2024.1.0	2024-08-28 11h07.26.326570 +0200	
						1	0	1	0																													#2AB7EF	None	None	None	465.5778408050537	text_01	39	1	Reading_Baseline_main_click	None	dass																								OA05	yes	yes	no	2024-08-28_10h12.02.490	EXNAT_3_training	2024.1.0	2024-08-28 11h07.26.326570 +0200	
						1	0	1	0																													#D292F3	None	None	None	598.8850593566895	text_01	40	1	Reading_Baseline_main_click	None	die																								OA05	yes	yes	no	2024-08-28_10h12.02.490	EXNAT_3_training	2024.1.0	2024-08-28 11h07.26.326570 +0200	
						1	0	1	0																													#2AB7EF	None	None	None	600.1560688018799	text_01	41	1	Reading_Baseline_main_click	None	älteren																								OA05	yes	yes	no	2024-08-28_10h12.02.490	EXNAT_3_training	2024.1.0	2024-08-28 11h07.26.326570 +0200	
						1	0	1	0																													#D292F3	None	None	None	614.7019863128662	text_01	42	1	Reading_Baseline_main_click	None	Tiere																								OA05	yes	yes	no	2024-08-28_10h12.02.490	EXNAT_3_training	2024.1.0	2024-08-28 11h07.26.326570 +0200	
						1	0	1	0																													#F989A2	None	None	None	532.8710079193115	text_01	43	1	Reading_Baseline_main_click	None	ihre																								OA05	yes	yes	no	2024-08-28_10h12.02.490	EXNAT_3_training	2024.1.0	2024-08-28 11h07.26.326570 +0200	
						1	0	1	0																													#2AB7EF	None	None	None	548.9368438720703	text_01	44	1	Reading_Baseline_main_click	None	Herden																								OA05	yes	yes	no	2024-08-28_10h12.02.490	EXNAT_3_training	2024.1.0	2024-08-28 11h07.26.326570 +0200	
						1	0	1	0																													#2AB7EF	None	None	None	548.551082611084	text_01	45	1	Reading_Baseline_main_click	None	beim																								OA05	yes	yes	no	2024-08-28_10h12.02.490	EXNAT_3_training	2024.1.0	2024-08-28 11h07.26.326570 +0200	
						1	0	1	0																													#88BA3F	None	None	None	499.16696548461914	text_01	46	1	Reading_Baseline_main_click	None	Gebrüll																								OA05	yes	yes	no	2024-08-28_10h12.02.490	EXNAT_3_training	2024.1.0	2024-08-28 11h07.26.326570 +0200	
						1	0	1	0																													#88BA3F	None	None	None	532.2320461273193	text_01	47	1	Reading_Baseline_main_click	None	eines																								OA05	yes	yes	no	2024-08-28_10h12.02.490	EXNAT_3_training	2024.1.0	2024-08-28 11h07.26.326570 +0200	
						1	0	1	0																													#88BA3F	None	None	None	481.01186752319336	text_01	48	1	Reading_Baseline_main_click	None	männlichen																								OA05	yes	yes	no	2024-08-28_10h12.02.490	EXNAT_3_training	2024.1.0	2024-08-28 11h07.26.326570 +0200	
						1	0	1	0																													#2AB7EF	None	None	None	481.9779396057129	text_01	49	1	Reading_Baseline_main_click	None	Löwen																								OA05	yes	yes	no	2024-08-28_10h12.02.490	EXNAT_3_training	2024.1.0	2024-08-28 11h07.26.326570 +0200	
						1	0	1	0																													#F989A2	None	None	None	515.812873840332	text_01	50	1	Reading_Baseline_main_click	None	stärker																								OA05	yes	yes	no	2024-08-28_10h12.02.490	EXNAT_3_training	2024.1.0	2024-08-28 11h07.26.326570 +0200	
						1	0	1	0																													#88BA3F	None	None	None	482.12599754333496	text_01	51	1	Reading_Baseline_main_click	None	"warnen,"																								OA05	yes	yes	no	2024-08-28_10h12.02.490	EXNAT_3_training	2024.1.0	2024-08-28 11h07.26.326570 +0200	
						1	0	1	0																													#F989A2	None	None	None	716.0539627075195	text_01	52	1	Reading_Baseline_main_click	None	als																								OA05	yes	yes	no	2024-08-28_10h12.02.490	EXNAT_3_training	2024.1.0	2024-08-28 11h07.26.326570 +0200	
						1	0	1	0																													#88BA3F	None	None	None	615.9119606018066	text_01	53	1	Reading_Baseline_main_click	None	bei																								OA05	yes	yes	no	2024-08-28_10h12.02.490	EXNAT_3_training	2024.1.0	2024-08-28 11h07.26.326570 +0200	
						1	0	1	0																													#F989A2	None	None	None	532.3519706726074	text_01	54	1	Reading_Baseline_main_click	None	dem																								OA05	yes	yes	no	2024-08-28_10h12.02.490	EXNAT_3_training	2024.1.0	2024-08-28 11h07.26.326570 +0200	
						1	0	1	0																													#F989A2	None	None	None	481.6269874572754	text_01	55	1	Reading_Baseline_main_click	None	einer																								OA05	yes	yes	no	2024-08-28_10h12.02.490	EXNAT_3_training	2024.1.0	2024-08-28 11h07.26.326570 +0200	
						1	0	1	0																													#2AB7EF	None	None	None	1266.4470672607422	text_01	56	1	Reading_Baseline_main_click	None	Löwin.																								OA05	yes	yes	no	2024-08-28_10h12.02.490	EXNAT_3_training	2024.1.0	2024-08-28 11h07.26.326570 +0200	
						1	0	1	0																													#D292F3	None	None	None	1083.9478969573975	text_01	57	1	Reading_Baseline_main_click	None	Denn																								OA05	yes	yes	no	2024-08-28_10h12.02.490	EXNAT_3_training	2024.1.0	2024-08-28 11h07.26.326570 +0200	
						1	0	1	0																													#2AB7EF	None	None	None	548.7351417541504	text_01	58	1	Reading_Baseline_main_click	None	Löwen																								OA05	yes	yes	no	2024-08-28_10h12.02.490	EXNAT_3_training	2024.1.0	2024-08-28 11h07.26.326570 +0200	
						1	0	1	0																													#D292F3	None	None	None	448.87399673461914	text_01	59	1	Reading_Baseline_main_click	None	sind																								OA05	yes	yes	no	2024-08-28_10h12.02.490	EXNAT_3_training	2024.1.0	2024-08-28 11h07.26.326570 +0200	
						1	0	1	0																													#D292F3	None	None	None	465.609073638916	text_01	60	1	Reading_Baseline_main_click	None	für																								OA05	yes	yes	no	2024-08-28_10h12.02.490	EXNAT_3_training	2024.1.0	2024-08-28 11h07.26.326570 +0200	
						1	0	1	0																													#D292F3	None	None	None	432.06310272216797	text_01	61	1	Reading_Baseline_main_click	None	junge																								OA05	yes	yes	no	2024-08-28_10h12.02.490	EXNAT_3_training	2024.1.0	2024-08-28 11h07.26.326570 +0200	
						1	0	1	0																													#F989A2	None	None	None	431.4579963684082	text_01	62	1	Reading_Baseline_main_click	None	Elefanten																								OA05	yes	yes	no	2024-08-28_10h12.02.490	EXNAT_3_training	2024.1.0	2024-08-28 11h07.26.326570 +0200	
						1	0	1	0																													#88BA3F	None	None	None	548.9881038665771	text_01	63	1	Reading_Baseline_main_click	None	gefährlicher.																								OA05	yes	yes	no	2024-08-28_10h12.02.490	EXNAT_3_training	2024.1.0	2024-08-28 11h07.26.326570 +0200	
						1	0	1	0																													#88BA3F	None	None	None	847.5801944732666	text_01	64	1	Reading_Baseline_main_click	None	jüngere																								OA05	yes	yes	no	2024-08-28_10h12.02.490	EXNAT_3_training	2024.1.0	2024-08-28 11h07.26.326570 +0200	
						1	0	1	0																													#F989A2	None	None	None	515.4590606689453	text_01	65	1	Reading_Baseline_main_click	None	Chefinnen																								OA05	yes	yes	no	2024-08-28_10h12.02.490	EXNAT_3_training	2024.1.0	2024-08-28 11h07.26.326570 +0200	
						1	0	1	0																													#F989A2	None	None	None	682.5180053710938	text_01	66	1	Reading_Baseline_main_click	None	machten																								OA05	yes	yes	no	2024-08-28_10h12.02.490	EXNAT_3_training	2024.1.0	2024-08-28 11h07.26.326570 +0200	
						1	0	1	0																													#88BA3F	None	None	None	517.2159671783447	text_01	67	1	Reading_Baseline_main_click	None	diesen																								OA05	yes	yes	no	2024-08-28_10h12.02.490	EXNAT_3_training	2024.1.0	2024-08-28 11h07.26.326570 +0200	
						1	0	1	0																													#2AB7EF	None	None	None	480.938196182251	text_01	68	1	Reading_Baseline_main_click	None	Unterschied																								OA05	yes	yes	no	2024-08-28_10h12.02.490	EXNAT_3_training	2024.1.0	2024-08-28 11h07.26.326570 +0200	
						1	0	1	0																													#D292F3	None	None	None	599.5378494262695	text_01	69	1	Reading_Baseline_main_click	None	kaum.																								OA05	yes	yes	no	2024-08-28_10h12.02.490	EXNAT_3_training	2024.1.0	2024-08-28 11h07.26.326570 +0200	
						1	0	1	0																													#2AB7EF	None	None	None	782.067060470581	text_01	70	1	Reading_Baseline_main_click	None	Afrikanische																								OA05	yes	yes	no	2024-08-28_10h12.02.490	EXNAT_3_training	2024.1.0	2024-08-28 11h07.26.326570 +0200	
						1	0	1	0																													#D292F3	None	None	None	732.5410842895508	text_01	71	1	Reading_Baseline_main_click	None	Elefanten																								OA05	yes	yes	no	2024-08-28_10h12.02.490	EXNAT_3_training	2024.1.0	2024-08-28 11h07.26.326570 +0200	
						1	0	1	0																													#D292F3	None	None	None	581.2070369720459	text_01	72	1	Reading_Baseline_main_click	None	können																								OA05	yes	yes	no	2024-08-28_10h12.02.490	EXNAT_3_training	2024.1.0	2024-08-28 11h07.26.326570 +0200	
						1	0	1	0																													#F989A2	None	None	None	532.9310894012451	text_01	73	1	Reading_Baseline_main_click	None	in																								OA05	yes	yes	no	2024-08-28_10h12.02.490	EXNAT_3_training	2024.1.0	2024-08-28 11h07.26.326570 +0200	
						1	0	1	0																													#D292F3	None	None	None	398.6530303955078	text_01	74	1	Reading_Baseline_main_click	None	freier																								OA05	yes	yes	no	2024-08-28_10h12.02.490	EXNAT_3_training	2024.1.0	2024-08-28 11h07.26.326570 +0200	
						1	0	1	0																													#2AB7EF	None	None	None	414.75796699523926	text_01	75	1	Reading_Baseline_main_click	None	Wildbahn																								OA05	yes	yes	no	2024-08-28_10h12.02.490	EXNAT_3_training	2024.1.0	2024-08-28 11h07.26.326570 +0200	
						1	0	1	0																													#D292F3	None	None	None	448.40502738952637	text_01	76	1	Reading_Baseline_main_click	None	bis																								OA05	yes	yes	no	2024-08-28_10h12.02.490	EXNAT_3_training	2024.1.0	2024-08-28 11h07.26.326570 +0200	
						1	0	1	0																													#88BA3F	None	None	None	449.2380619049072	text_01	77	1	Reading_Baseline_main_click	None	zu																								OA05	yes	yes	no	2024-08-28_10h12.02.490	EXNAT_3_training	2024.1.0	2024-08-28 11h07.26.326570 +0200	
						1	0	1	0																													#88BA3F	None	None	None	448.40192794799805	text_01	78	1	Reading_Baseline_main_click	None	70																								OA05	yes	yes	no	2024-08-28_10h12.02.490	EXNAT_3_training	2024.1.0	2024-08-28 11h07.26.326570 +0200	
						1	0	1	0																													#88BA3F	None	None	None	531.7578315734863	text_01	79	1	Reading_Baseline_main_click	None	Jahre																								OA05	yes	yes	no	2024-08-28_10h12.02.490	EXNAT_3_training	2024.1.0	2024-08-28 11h07.26.326570 +0200	
						1	0	1	0																													#D292F3	None	None	None	565.051794052124	text_01	80	1	Reading_Baseline_main_click	None	alt																								OA05	yes	yes	no	2024-08-28_10h12.02.490	EXNAT_3_training	2024.1.0	2024-08-28 11h07.26.326570 +0200	
						1	0	1	0																													#2AB7EF	None	None	None	482.12504386901855	text_01	81	1	Reading_Baseline_main_click	None	werden.																								OA05	yes	yes	no	2024-08-28_10h12.02.490	EXNAT_3_training	2024.1.0	2024-08-28 11h07.26.326570 +0200	
						1	0	1	0																													#F989A2	None	None	None	498.99911880493164	text_01	82	1	Reading_Baseline_main_click	None	Die																								OA05	yes	yes	no	2024-08-28_10h12.02.490	EXNAT_3_training	2024.1.0	2024-08-28 11h07.26.326570 +0200	
						1	0	1	0																													#2AB7EF	None	None	None	582.0460319519043	text_01	83	1	Reading_Baseline_main_click	None	nützliche																								OA05	yes	yes	no	2024-08-28_10h12.02.490	EXNAT_3_training	2024.1.0	2024-08-28 11h07.26.326570 +0200	
						1	0	1	0																													#F989A2	None	None	None	565.0880336761475	text_01	84	1	Reading_Baseline_main_click	None	Erfahrung																								OA05	yes	yes	no	2024-08-28_10h12.02.490	EXNAT_3_training	2024.1.0	2024-08-28 11h07.26.326570 +0200	
						1	0	1	0																													#D292F3	None	None	None	582.5660228729248	text_01	85	1	Reading_Baseline_main_click	None	älterer																								OA05	yes	yes	no	2024-08-28_10h12.02.490	EXNAT_3_training	2024.1.0	2024-08-28 11h07.26.326570 +0200	
						1	0	1	0																													#F989A2	None	None	None	448.5969543457031	text_01	86	1	Reading_Baseline_main_click	None	Tiere																								OA05	yes	yes	no	2024-08-28_10h12.02.490	EXNAT_3_training	2024.1.0	2024-08-28 11h07.26.326570 +0200	
						1	0	1	0																													#2AB7EF	None	None	None	665.3130054473877	text_01	87	1	Reading_Baseline_main_click	None	könnte																								OA05	yes	yes	no	2024-08-28_10h12.02.490	EXNAT_3_training	2024.1.0	2024-08-28 11h07.26.326570 +0200	
						1	0	1	0																													#F989A2	None	None	None	415.5158996582031	text_01	88	1	Reading_Baseline_main_click	None	ein																								OA05	yes	yes	no	2024-08-28_10h12.02.490	EXNAT_3_training	2024.1.0	2024-08-28 11h07.26.326570 +0200	
						1	0	1	0																													#88BA3F	None	None	None	414.7200584411621	text_01	89	1	Reading_Baseline_main_click	None	Grund																								OA05	yes	yes	no	2024-08-28_10h12.02.490	EXNAT_3_training	2024.1.0	2024-08-28 11h07.26.326570 +0200	
						1	0	1	0																													#D292F3	None	None	None	432.58094787597656	text_01	90	1	Reading_Baseline_main_click	None	dafür																								OA05	yes	yes	no	2024-08-28_10h12.02.490	EXNAT_3_training	2024.1.0	2024-08-28 11h07.26.326570 +0200	
						1	0	1	0																													#2AB7EF	None	None	None	414.90793228149414	text_01	91	1	Reading_Baseline_main_click	None	sein.																								OA05	yes	yes	no	2024-08-28_10h12.02.490	EXNAT_3_training	2024.1.0	2024-08-28 11h07.26.326570 +0200	
						1	0	1	0																																		text_01			Reading_Baseline_main_click			501.3609049320221	Q1	2	b	True	2	None																	OA05	yes	yes	no	2024-08-28_10h12.02.490	EXNAT_3_training	2024.1.0	2024-08-28 11h07.26.326570 +0200	
						1	0	1	0																																		text_01			Reading_Baseline_main_click			506.30977392196655	Q2	2	b	True	2	None																	OA05	yes	yes	no	2024-08-28_10h12.02.490	EXNAT_3_training	2024.1.0	2024-08-28 11h07.26.326570 +0200	
						1	0	1	0																																		text_01			Reading_Baseline_main_click			508.84506487846375	Q3	1	a	False	2	None																	OA05	yes	yes	no	2024-08-28_10h12.02.490	EXNAT_3_training	2024.1.0	2024-08-28 11h07.26.326570 +0200	
						1	0	1	0																																															513.9095358848572	513.9095549583435	513.9492039680481	513.9492180347443	513.9580709934235	513.9580788612366	513.9751999378204										OA05	yes	yes	no	2024-08-28_10h12.02.490	EXNAT_3_training	2024.1.0	2024-08-28 11h07.26.326570 +0200	
						2	0	2	0	513.9914140701294																									513.9754979610443			#F989A2	False	correct rejection	None	1500		1	2	0back_single_training	0																#D292F3									OA05	yes	yes	no	2024-08-28_10h12.02.490	EXNAT_3_training	2024.1.0	2024-08-28 11h07.26.326570 +0200	
						2	0	2	0																													#D292F3	True	hit	432.2550296783447	1484.3008518218994		2	2	0back_single_training	0																#D292F3									OA05	yes	yes	no	2024-08-28_10h12.02.490	EXNAT_3_training	2024.1.0	2024-08-28 11h07.26.326570 +0200	
						2	0	2	0																													#D292F3	True	hit	702.2340297698975	1404.1330814361572		3	2	0back_single_training	0																#D292F3									OA05	yes	yes	no	2024-08-28_10h12.02.490	EXNAT_3_training	2024.1.0	2024-08-28 11h07.26.326570 +0200	
						2	0	2	0																													#88BA3F	False	correct rejection	None	900.8879661560059		4	2	0back_single_training	0																#D292F3									OA05	yes	yes	no	2024-08-28_10h12.02.490	EXNAT_3_training	2024.1.0	2024-08-28 11h07.26.326570 +0200	
						2	0	2	0																													#D292F3	True	hit	834.6109390258789	1552.1509647369385		5	2	0back_single_training	0																#D292F3									OA05	yes	yes	no	2024-08-28_10h12.02.490	EXNAT_3_training	2024.1.0	2024-08-28 11h07.26.326570 +0200	
						2	0	2	0																													#88BA3F	False	correct rejection	None	767.3008441925049		6	2	0back_single_training	0																#D292F3									OA05	yes	yes	no	2024-08-28_10h12.02.490	EXNAT_3_training	2024.1.0	2024-08-28 11h07.26.326570 +0200	
						2	0	2	0																													#88BA3F	False	correct rejection	None	600.2910137176514		7	2	0back_single_training	0																#D292F3									OA05	yes	yes	no	2024-08-28_10h12.02.490	EXNAT_3_training	2024.1.0	2024-08-28 11h07.26.326570 +0200	
						2	0	2	0																													#F989A2	False	correct rejection	None	700.9990215301514		8	2	0back_single_training	0																#D292F3									OA05	yes	yes	no	2024-08-28_10h12.02.490	EXNAT_3_training	2024.1.0	2024-08-28 11h07.26.326570 +0200	
						2	0	2	0																													#2AB7EF	False	correct rejection	None	583.6329460144043		9	2	0back_single_training	0																#D292F3									OA05	yes	yes	no	2024-08-28_10h12.02.490	EXNAT_3_training	2024.1.0	2024-08-28 11h07.26.326570 +0200	
						2	0	2	0																													#D292F3	True	hit	534.0139865875244	1301.6729354858398		10	2	0back_single_training	0																#D292F3									OA05	yes	yes	no	2024-08-28_10h12.02.490	EXNAT_3_training	2024.1.0	2024-08-28 11h07.26.326570 +0200	
						2	0	2	0																													#F989A2	False	false alarm	800.7040023803711	1500		11	2	0back_single_training	0																#D292F3									OA05	yes	yes	no	2024-08-28_10h12.02.490	EXNAT_3_training	2024.1.0	2024-08-28 11h07.26.326570 +0200	
						2	0	2	0																													#F989A2	False	correct rejection	None	15.88296890258789		12	2	0back_single_training	0																#D292F3									OA05	yes	yes	no	2024-08-28_10h12.02.490	EXNAT_3_training	2024.1.0	2024-08-28 11h07.26.326570 +0200	
						2	0	2	0																													#88BA3F	False	correct rejection	None	801.2571334838867		13	2	0back_single_training	0																#D292F3									OA05	yes	yes	no	2024-08-28_10h12.02.490	EXNAT_3_training	2024.1.0	2024-08-28 11h07.26.326570 +0200	
						2	0	2	0																													#88BA3F	False	correct rejection	None	550.7938861846924		14	2	0back_single_training	0																#D292F3									OA05	yes	yes	no	2024-08-28_10h12.02.490	EXNAT_3_training	2024.1.0	2024-08-28 11h07.26.326570 +0200	
						2	0	2	0																													#F989A2	False	correct rejection	None	934.8480701446533		15	2	0back_single_training	0																#D292F3									OA05	yes	yes	no	2024-08-28_10h12.02.490	EXNAT_3_training	2024.1.0	2024-08-28 11h07.26.326570 +0200	
						2	0	2	0																													#2AB7EF	False	correct rejection	None	600.8439064025879		16	2	0back_single_training	0																#D292F3									OA05	yes	yes	no	2024-08-28_10h12.02.490	EXNAT_3_training	2024.1.0	2024-08-28 11h07.26.326570 +0200	
						2	0	2	0																													#2AB7EF	False	correct rejection	None	515.8090591430664		17	2	0back_single_training	0																#D292F3									OA05	yes	yes	no	2024-08-28_10h12.02.490	EXNAT_3_training	2024.1.0	2024-08-28 11h07.26.326570 +0200	
						2	0	2	0																													#2AB7EF	False	correct rejection	None	564.2640590667725		18	2	0back_single_training	0																#D292F3									OA05	yes	yes	no	2024-08-28_10h12.02.490	EXNAT_3_training	2024.1.0	2024-08-28 11h07.26.326570 +0200	
						2	0	2	0																													#2AB7EF	False	correct rejection	None	667.6688194274902		19	2	0back_single_training	0																#D292F3									OA05	yes	yes	no	2024-08-28_10h12.02.490	EXNAT_3_training	2024.1.0	2024-08-28 11h07.26.326570 +0200	
						2	0	2	0																													#D292F3	True	hit	835.7892036437988	1520.456075668335		20	2	0back_single_training	0																#D292F3									OA05	yes	yes	no	2024-08-28_10h12.02.490	EXNAT_3_training	2024.1.0	2024-08-28 11h07.26.326570 +0200	
						2	0	2	0																											579.3531949520111	579.3532049655914	#F989A2	False	correct rejection	None	1318.5679912567139	text_02	1	3	0back_dual_main_click	0	In															#2AB7EF									OA05	yes	yes	no	2024-08-28_10h12.02.490	EXNAT_3_training	2024.1.0	2024-08-28 11h07.26.326570 +0200	
						2	0	2	0																													#D292F3	False	correct rejection	None	1030.5540561676025	text_02	2	3	0back_dual_main_click	0	Tansania															#2AB7EF									OA05	yes	yes	no	2024-08-28_10h12.02.490	EXNAT_3_training	2024.1.0	2024-08-28 11h07.26.326570 +0200	
						2	0	2	0																													#88BA3F	False	correct rejection	None	867.2590255737305	text_02	3	3	0back_dual_main_click	0	haben															#2AB7EF									OA05	yes	yes	no	2024-08-28_10h12.02.490	EXNAT_3_training	2024.1.0	2024-08-28 11h07.26.326570 +0200	
						2	0	2	0																													#F989A2	False	correct rejection	None	931.9381713867188	text_02	4	3	0back_dual_main_click	0	Forscher															#2AB7EF									OA05	yes	yes	no	2024-08-28_10h12.02.490	EXNAT_3_training	2024.1.0	2024-08-28 11h07.26.326570 +0200	
						2	0	2	0																													#F989A2	False	correct rejection	None	931.3108921051025	text_02	5	3	0back_dual_main_click	0	Überreste															#2AB7EF									OA05	yes	yes	no	2024-08-28_10h12.02.490	EXNAT_3_training	2024.1.0	2024-08-28 11h07.26.326570 +0200	
						2	0	2	0																													#D292F3	False	correct rejection	None	1033.7061882019043	text_02	6	3	0back_dual_main_click	0	eines															#2AB7EF									OA05	yes	yes	no	2024-08-28_10h12.02.490	EXNAT_3_training	2024.1.0	2024-08-28 11h07.26.326570 +0200	
						2	0	2	0																													#88BA3F	False	correct rejection	None	914.0441417694092	text_02	7	3	0back_dual_main_click	0	Urzeit-Krokodils															#2AB7EF									OA05	yes	yes	no	2024-08-28_10h12.02.490	EXNAT_3_training	2024.1.0	2024-08-28 11h07.26.326570 +0200	
						2	0	2	0																													#F989A2	False	correct rejection	None	916.4009094238281	text_02	8	3	0back_dual_main_click	0	entdeckt.															#2AB7EF									OA05	yes	yes	no	2024-08-28_10h12.02.490	EXNAT_3_training	2024.1.0	2024-08-28 11h07.26.326570 +0200	
						2	0	2	0																													#2AB7EF	True	hit	615.0331497192383	1500	text_02	9	3	0back_dual_main_click	0	Es															#2AB7EF									OA05	yes	yes	no	2024-08-28_10h12.02.490	EXNAT_3_training	2024.1.0	2024-08-28 11h07.26.326570 +0200	
						2	0	2	0																													#F989A2	False	correct rejection	None	164.92486000061035	text_02	10	3	0back_dual_main_click	0	zeigt															#2AB7EF									OA05	yes	yes	no	2024-08-28_10h12.02.490	EXNAT_3_training	2024.1.0	2024-08-28 11h07.26.326570 +0200	
						2	0	2	0																													#88BA3F	False	correct rejection	None	1099.5640754699707	text_02	11	3	0back_dual_main_click	0	Ähnlichkeiten															#2AB7EF									OA05	yes	yes	no	2024-08-28_10h12.02.490	EXNAT_3_training	2024.1.0	2024-08-28 11h07.26.326570 +0200	
						2	0	2	0																													#88BA3F	False	correct rejection	None	898.9510536193848	text_02	12	3	0back_dual_main_click	0	zu															#2AB7EF									OA05	yes	yes	no	2024-08-28_10h12.02.490	EXNAT_3_training	2024.1.0	2024-08-28 11h07.26.326570 +0200	
						2	0	2	0																													#D292F3	False	correct rejection	None	1500	text_02	13	3	0back_dual_main_click	0	Säugetieren.															#2AB7EF									OA05	yes	yes	no	2024-08-28_10h12.02.490	EXNAT_3_training	2024.1.0	2024-08-28 11h07.26.326570 +0200	
						2	0	2	0																													#88BA3F	False	correct rejection	None	1250.4229545593262	text_02	14	3	0back_dual_main_click	0	Es															#2AB7EF									OA05	yes	yes	no	2024-08-28_10h12.02.490	EXNAT_3_training	2024.1.0	2024-08-28 11h07.26.326570 +0200	
						2	0	2	0																													#F989A2	False	correct rejection	None	815.0830268859863	text_02	15	3	0back_dual_main_click	0	war															#2AB7EF									OA05	yes	yes	no	2024-08-28_10h12.02.490	EXNAT_3_training	2024.1.0	2024-08-28 11h07.26.326570 +0200	
						2	0	2	0																													#F989A2	False	correct rejection	None	766.6809558868408	text_02	16	3	0back_dual_main_click	0	so															#2AB7EF									OA05	yes	yes	no	2024-08-28_10h12.02.490	EXNAT_3_training	2024.1.0	2024-08-28 11h07.26.326570 +0200	
						2	0	2	0																													#F989A2	False	correct rejection	None	880.8929920196533	text_02	17	3	0back_dual_main_click	0	groß															#2AB7EF									OA05	yes	yes	no	2024-08-28_10h12.02.490	EXNAT_3_training	2024.1.0	2024-08-28 11h07.26.326570 +0200	
						2	0	2	0																													#2AB7EF	True	hit	765.9800052642822	1500	text_02	18	3	0back_dual_main_click	0	wie															#2AB7EF									OA05	yes	yes	no	2024-08-28_10h12.02.490	EXNAT_3_training	2024.1.0	2024-08-28 11h07.26.326570 +0200	
						2	0	2	0																													#F989A2	False	correct rejection	None	182.19804763793945	text_02	19	3	0back_dual_main_click	0	eine															#2AB7EF									OA05	yes	yes	no	2024-08-28_10h12.02.490	EXNAT_3_training	2024.1.0	2024-08-28 11h07.26.326570 +0200	
						2	0	2	0																													#F989A2	False	correct rejection	None	1016.5650844573975	text_02	20	3	0back_dual_main_click	0	Katze.															#2AB7EF									OA05	yes	yes	no	2024-08-28_10h12.02.490	EXNAT_3_training	2024.1.0	2024-08-28 11h07.26.326570 +0200	
						2	0	2	0																													#2AB7EF	True	hit	614.4521236419678	1500	text_02	21	3	0back_dual_main_click	0	Das															#2AB7EF									OA05	yes	yes	no	2024-08-28_10h12.02.490	EXNAT_3_training	2024.1.0	2024-08-28 11h07.26.326570 +0200	
						2	0	2	0																													#88BA3F	False	correct rejection	None	999.8679161071777	text_02	22	3	0back_dual_main_click	0	Tier															#2AB7EF									OA05	yes	yes	no	2024-08-28_10h12.02.490	EXNAT_3_training	2024.1.0	2024-08-28 11h07.26.326570 +0200	
						2	0	2	0																													#F989A2	False	correct rejection	None	932.499885559082	text_02	23	3	0back_dual_main_click	0	lebte															#2AB7EF									OA05	yes	yes	no	2024-08-28_10h12.02.490	EXNAT_3_training	2024.1.0	2024-08-28 11h07.26.326570 +0200	
						2	0	2	0																													#88BA3F	False	correct rejection	None	916.4879322052002	text_02	24	3	0back_dual_main_click	0	vor															#2AB7EF									OA05	yes	yes	no	2024-08-28_10h12.02.490	EXNAT_3_training	2024.1.0	2024-08-28 11h07.26.326570 +0200	
						2	0	2	0																													#D292F3	False	correct rejection	None	999.6950626373291	text_02	25	3	0back_dual_main_click	0	etwa															#2AB7EF									OA05	yes	yes	no	2024-08-28_10h12.02.490	EXNAT_3_training	2024.1.0	2024-08-28 11h07.26.326570 +0200	
						2	0	2	0																													#F989A2	False	correct rejection	None	798.2549667358398	text_02	26	3	0back_dual_main_click	0	105															#2AB7EF									OA05	yes	yes	no	2024-08-28_10h12.02.490	EXNAT_3_training	2024.1.0	2024-08-28 11h07.26.326570 +0200	
						2	0	2	0																													#D292F3	False	correct rejection	None	849.4069576263428	text_02	27	3	0back_dual_main_click	0	Millionen															#2AB7EF									OA05	yes	yes	no	2024-08-28_10h12.02.490	EXNAT_3_training	2024.1.0	2024-08-28 11h07.26.326570 +0200	
						2	0	2	0																													#F989A2	False	correct rejection	None	948.8430023193359	text_02	28	3	0back_dual_main_click	0	Jahren															#2AB7EF									OA05	yes	yes	no	2024-08-28_10h12.02.490	EXNAT_3_training	2024.1.0	2024-08-28 11h07.26.326570 +0200	
						2	0	2	0																													#D292F3	False	correct rejection	None	797.9691028594971	text_02	29	3	0back_dual_main_click	0	und															#2AB7EF									OA05	yes	yes	no	2024-08-28_10h12.02.490	EXNAT_3_training	2024.1.0	2024-08-28 11h07.26.326570 +0200	
						2	0	2	0																													#F989A2	False	correct rejection	None	798.9490032196045	text_02	30	3	0back_dual_main_click	0	jagte															#2AB7EF									OA05	yes	yes	no	2024-08-28_10h12.02.490	EXNAT_3_training	2024.1.0	2024-08-28 11h07.26.326570 +0200	
						2	0	2	0																													#F989A2	False	correct rejection	None	699.4509696960449	text_02	31	3	0back_dual_main_click	0	an															#2AB7EF									OA05	yes	yes	no	2024-08-28_10h12.02.490	EXNAT_3_training	2024.1.0	2024-08-28 11h07.26.326570 +0200	
						2	0	2	0																													#D292F3	False	correct rejection	None	933.7530136108398	text_02	32	3	0back_dual_main_click	0	Land															#2AB7EF									OA05	yes	yes	no	2024-08-28_10h12.02.490	EXNAT_3_training	2024.1.0	2024-08-28 11h07.26.326570 +0200	
						2	0	2	0																													#88BA3F	False	correct rejection	None	1050.0149726867676	text_02	33	3	0back_dual_main_click	0	nach															#2AB7EF									OA05	yes	yes	no	2024-08-28_10h12.02.490	EXNAT_3_training	2024.1.0	2024-08-28 11h07.26.326570 +0200	
						2	0	2	0																													#F989A2	False	correct rejection	None	832.7300548553467	text_02	34	3	0back_dual_main_click	0	Insekten															#2AB7EF									OA05	yes	yes	no	2024-08-28_10h12.02.490	EXNAT_3_training	2024.1.0	2024-08-28 11h07.26.326570 +0200	
						2	0	2	0																													#F989A2	False	correct rejection	None	849.682092666626	text_02	35	3	0back_dual_main_click	0	und															#2AB7EF									OA05	yes	yes	no	2024-08-28_10h12.02.490	EXNAT_3_training	2024.1.0	2024-08-28 11h07.26.326570 +0200	
						2	0	2	0																													#D292F3	False	correct rejection	None	816.6298866271973	text_02	36	3	0back_dual_main_click	0	kleinen															#2AB7EF									OA05	yes	yes	no	2024-08-28_10h12.02.490	EXNAT_3_training	2024.1.0	2024-08-28 11h07.26.326570 +0200	
						2	0	2	0																													#F989A2	False	correct rejection	None	982.755184173584	text_02	37	3	0back_dual_main_click	0	Tieren.															#2AB7EF									OA05	yes	yes	no	2024-08-28_10h12.02.490	EXNAT_3_training	2024.1.0	2024-08-28 11h07.26.326570 +0200	
						2	0	2	0																													#D292F3	False	correct rejection	None	966.0811424255371	text_02	38	3	0back_dual_main_click	0	Es															#2AB7EF									OA05	yes	yes	no	2024-08-28_10h12.02.490	EXNAT_3_training	2024.1.0	2024-08-28 11h07.26.326570 +0200	
						2	0	2	0																													#D292F3	False	correct rejection	None	1083.1570625305176	text_02	39	3	0back_dual_main_click	0	besaß															#2AB7EF									OA05	yes	yes	no	2024-08-28_10h12.02.490	EXNAT_3_training	2024.1.0	2024-08-28 11h07.26.326570 +0200	
						2	0	2	0																													#D292F3	False	correct rejection	None	815.4218196868896	text_02	40	3	0back_dual_main_click	0	ungewöhnliche															#2AB7EF									OA05	yes	yes	no	2024-08-28_10h12.02.490	EXNAT_3_training	2024.1.0	2024-08-28 11h07.26.326570 +0200	
						2	0	2	0																													#88BA3F	False	correct rejection	None	815.687894821167	text_02	41	3	0back_dual_main_click	0	"Merkmale,"															#2AB7EF									OA05	yes	yes	no	2024-08-28_10h12.02.490	EXNAT_3_training	2024.1.0	2024-08-28 11h07.26.326570 +0200	
						2	0	2	0																													#F989A2	False	correct rejection	None	866.1961555480957	text_02	42	3	0back_dual_main_click	0	wie															#2AB7EF									OA05	yes	yes	no	2024-08-28_10h12.02.490	EXNAT_3_training	2024.1.0	2024-08-28 11h07.26.326570 +0200	
						2	0	2	0																													#F989A2	False	correct rejection	None	765.5000686645508	text_02	43	3	0back_dual_main_click	0	weniger															#2AB7EF									OA05	yes	yes	no	2024-08-28_10h12.02.490	EXNAT_3_training	2024.1.0	2024-08-28 11h07.26.326570 +0200	
						2	0	2	0																													#F989A2	False	correct rejection	None	965.9440517425537	text_02	44	3	0back_dual_main_click	0	Zähne															#2AB7EF									OA05	yes	yes	no	2024-08-28_10h12.02.490	EXNAT_3_training	2024.1.0	2024-08-28 11h07.26.326570 +0200	
						2	0	2	0																													#88BA3F	False	correct rejection	None	816.2949085235596	text_02	45	3	0back_dual_main_click	0	und															#2AB7EF									OA05	yes	yes	no	2024-08-28_10h12.02.490	EXNAT_3_training	2024.1.0	2024-08-28 11h07.26.326570 +0200	
						2	0	2	0																													#D292F3	False	correct rejection	None	915.8689975738525	text_02	46	3	0back_dual_main_click	0	hatte															#2AB7EF									OA05	yes	yes	no	2024-08-28_10h12.02.490	EXNAT_3_training	2024.1.0	2024-08-28 11h07.26.326570 +0200	
						2	0	2	0																													#D292F3	False	correct rejection	None	1082.6530456542969	text_02	47	3	0back_dual_main_click	0	Backenzähne															#2AB7EF									OA05	yes	yes	no	2024-08-28_10h12.02.490	EXNAT_3_training	2024.1.0	2024-08-28 11h07.26.326570 +0200	
						2	0	2	0																													#D292F3	False	correct rejection	None	849.9941825866699	text_02	48	3	0back_dual_main_click	0	zum															#2AB7EF									OA05	yes	yes	no	2024-08-28_10h12.02.490	EXNAT_3_training	2024.1.0	2024-08-28 11h07.26.326570 +0200	
						2	0	2	0																													#88BA3F	False	correct rejection	None	1049.4089126586914	text_02	49	3	0back_dual_main_click	0	Kauen															#2AB7EF									OA05	yes	yes	no	2024-08-28_10h12.02.490	EXNAT_3_training	2024.1.0	2024-08-28 11h07.26.326570 +0200	
						2	0	2	0																													#2AB7EF	True	hit	565.2420520782471	1467.482089996338	text_02	50	3	0back_dual_main_click	0	von															#2AB7EF									OA05	yes	yes	no	2024-08-28_10h12.02.490	EXNAT_3_training	2024.1.0	2024-08-28 11h07.26.326570 +0200	
						2	0	2	0																													#2AB7EF	True	hit	780.555009841919	1500	text_02	51	3	0back_dual_main_click	0	Nahrung.															#2AB7EF									OA05	yes	yes	no	2024-08-28_10h12.02.490	EXNAT_3_training	2024.1.0	2024-08-28 11h07.26.326570 +0200	
						2	0	2	0																													#88BA3F	False	correct rejection	None	1217.3221111297607	text_02	52	3	0back_dual_main_click	0	Außerdem															#2AB7EF									OA05	yes	yes	no	2024-08-28_10h12.02.490	EXNAT_3_training	2024.1.0	2024-08-28 11h07.26.326570 +0200	
						2	0	2	0																													#F989A2	False	correct rejection	None	1117.1870231628418	text_02	53	3	0back_dual_main_click	0	war															#2AB7EF									OA05	yes	yes	no	2024-08-28_10h12.02.490	EXNAT_3_training	2024.1.0	2024-08-28 11h07.26.326570 +0200	
						2	0	2	0																													#88BA3F	False	correct rejection	None	832.9482078552246	text_02	54	3	0back_dual_main_click	0	es															#2AB7EF									OA05	yes	yes	no	2024-08-28_10h12.02.490	EXNAT_3_training	2024.1.0	2024-08-28 11h07.26.326570 +0200	
						2	0	2	0																													#88BA3F	False	correct rejection	None	715.7719135284424	text_02	55	3	0back_dual_main_click	0	weniger															#2AB7EF									OA05	yes	yes	no	2024-08-28_10h12.02.490	EXNAT_3_training	2024.1.0	2024-08-28 11h07.26.326570 +0200	
						2	0	2	0																													#2AB7EF	True	hit	631.3929557800293	1500	text_02	56	3	0back_dual_main_click	0	gepanzert.															#2AB7EF									OA05	yes	yes	no	2024-08-28_10h12.02.490	EXNAT_3_training	2024.1.0	2024-08-28 11h07.26.326570 +0200	
						2	0	2	0																													#88BA3F	False	correct rejection	None	965.7840728759766	text_02	57	3	0back_dual_main_click	0	Die															#2AB7EF									OA05	yes	yes	no	2024-08-28_10h12.02.490	EXNAT_3_training	2024.1.0	2024-08-28 11h07.26.326570 +0200	
						2	0	2	0																													#88BA3F	False	correct rejection	None	916.7699813842773	text_02	58	3	0back_dual_main_click	0	Forscher															#2AB7EF									OA05	yes	yes	no	2024-08-28_10h12.02.490	EXNAT_3_training	2024.1.0	2024-08-28 11h07.26.326570 +0200	
						2	0	2	0																													#2AB7EF	True	hit	815.9000873565674	1500	text_02	59	3	0back_dual_main_click	0	"denken,"															#2AB7EF									OA05	yes	yes	no	2024-08-28_10h12.02.490	EXNAT_3_training	2024.1.0	2024-08-28 11h07.26.326570 +0200	
						2	0	2	0																													#D292F3	False	correct rejection	None	81.47788047790527	text_02	60	3	0back_dual_main_click	0	dass															#2AB7EF									OA05	yes	yes	no	2024-08-28_10h12.02.490	EXNAT_3_training	2024.1.0	2024-08-28 11h07.26.326570 +0200	
						2	0	2	0																													#2AB7EF	True	hit	782.8149795532227	1500	text_02	61	3	0back_dual_main_click	0	Krokodile															#2AB7EF									OA05	yes	yes	no	2024-08-28_10h12.02.490	EXNAT_3_training	2024.1.0	2024-08-28 11h07.26.326570 +0200	
						2	0	2	0																													#F989A2	False	correct rejection	None	165.03405570983887	text_02	62	3	0back_dual_main_click	0	in															#2AB7EF									OA05	yes	yes	no	2024-08-28_10h12.02.490	EXNAT_3_training	2024.1.0	2024-08-28 11h07.26.326570 +0200	
						2	0	2	0																													#D292F3	False	correct rejection	None	916.539192199707	text_02	63	3	0back_dual_main_click	0	der															#2AB7EF									OA05	yes	yes	no	2024-08-28_10h12.02.490	EXNAT_3_training	2024.1.0	2024-08-28 11h07.26.326570 +0200	
						2	0	2	0																													#2AB7EF	True	hit	698.2121467590332	1500	text_02	64	3	0back_dual_main_click	0	Vergangenheit															#2AB7EF									OA05	yes	yes	no	2024-08-28_10h12.02.490	EXNAT_3_training	2024.1.0	2024-08-28 11h07.26.326570 +0200	
						2	0	2	0																													#D292F3	False	correct rejection	None	231.31704330444336	text_02	65	3	0back_dual_main_click	0	auf															#2AB7EF									OA05	yes	yes	no	2024-08-28_10h12.02.490	EXNAT_3_training	2024.1.0	2024-08-28 11h07.26.326570 +0200	
						2	0	2	0																													#D292F3	False	correct rejection	None	1066.7669773101807	text_02	66	3	0back_dual_main_click	0	der															#2AB7EF									OA05	yes	yes	no	2024-08-28_10h12.02.490	EXNAT_3_training	2024.1.0	2024-08-28 11h07.26.326570 +0200	
						2	0	2	0																													#88BA3F	False	correct rejection	None	1500	text_02	67	3	0back_dual_main_click	0	Südhalbkugel															#2AB7EF									OA05	yes	yes	no	2024-08-28_10h12.02.490	EXNAT_3_training	2024.1.0	2024-08-28 11h07.26.326570 +0200	
						2	0	2	0																													#F989A2	False	correct rejection	None	1500	text_02	68	3	0back_dual_main_click	0	"lebten,"															#2AB7EF									OA05	yes	yes	no	2024-08-28_10h12.02.490	EXNAT_3_training	2024.1.0	2024-08-28 11h07.26.326570 +0200	
						2	0	2	0																													#88BA3F	False	correct rejection	None	1500	text_02	69	3	0back_dual_main_click	0	während															#2AB7EF									OA05	yes	yes	no	2024-08-28_10h12.02.490	EXNAT_3_training	2024.1.0	2024-08-28 11h07.26.326570 +0200	
						2	0	2	0																													#F989A2	False	correct rejection	None	1100.1770496368408	text_02	70	3	0back_dual_main_click	0	sich															#2AB7EF									OA05	yes	yes	no	2024-08-28_10h12.02.490	EXNAT_3_training	2024.1.0	2024-08-28 11h07.26.326570 +0200	
						2	0	2	0																													#D292F3	False	correct rejection	None	932.5709342956543	text_02	71	3	0back_dual_main_click	0	Säugetiere															#2AB7EF									OA05	yes	yes	no	2024-08-28_10h12.02.490	EXNAT_3_training	2024.1.0	2024-08-28 11h07.26.326570 +0200	
						2	0	2	0																													#D292F3	False	correct rejection	None	782.6778888702393	text_02	72	3	0back_dual_main_click	0	auf															#2AB7EF									OA05	yes	yes	no	2024-08-28_10h12.02.490	EXNAT_3_training	2024.1.0	2024-08-28 11h07.26.326570 +0200	
						2	0	2	0																													#88BA3F	False	correct rejection	None	866.3568496704102	text_02	73	3	0back_dual_main_click	0	der															#2AB7EF									OA05	yes	yes	no	2024-08-28_10h12.02.490	EXNAT_3_training	2024.1.0	2024-08-28 11h07.26.326570 +0200	
						2	0	2	0																													#2AB7EF	True	hit	531.9430828094482	1500.4849433898926	text_02	74	3	0back_dual_main_click	0	Nordhalbkugel															#2AB7EF									OA05	yes	yes	no	2024-08-28_10h12.02.490	EXNAT_3_training	2024.1.0	2024-08-28 11h07.26.326570 +0200	
						2	0	2	0																													#D292F3	False	correct rejection	None	1066.4269924163818	text_02	75	3	0back_dual_main_click	0	ausbreiteten.															#2AB7EF									OA05	yes	yes	no	2024-08-28_10h12.02.490	EXNAT_3_training	2024.1.0	2024-08-28 11h07.26.326570 +0200	
						2	0	2	0																													#D292F3	False	correct rejection	None	866.1839962005615	text_02	76	3	0back_dual_main_click	0	Die															#2AB7EF									OA05	yes	yes	no	2024-08-28_10h12.02.490	EXNAT_3_training	2024.1.0	2024-08-28 11h07.26.326570 +0200	
						2	0	2	0																													#D292F3	False	correct rejection	None	832.7569961547852	text_02	77	3	0back_dual_main_click	0	Forscher															#2AB7EF									OA05	yes	yes	no	2024-08-28_10h12.02.490	EXNAT_3_training	2024.1.0	2024-08-28 11h07.26.326570 +0200	
						2	0	2	0																													#2AB7EF	True	hit	631.9119930267334	1266.4690017700195	text_02	78	3	0back_dual_main_click	0	werden															#2AB7EF									OA05	yes	yes	no	2024-08-28_10h12.02.490	EXNAT_3_training	2024.1.0	2024-08-28 11h07.26.326570 +0200	
						2	0	2	0																													#88BA3F	False	correct rejection	None	714.4529819488525	text_02	79	3	0back_dual_main_click	0	in															#2AB7EF									OA05	yes	yes	no	2024-08-28_10h12.02.490	EXNAT_3_training	2024.1.0	2024-08-28 11h07.26.326570 +0200	
						2	0	2	0																													#D292F3	False	correct rejection	None	732.2900295257568	text_02	80	3	0back_dual_main_click	0	Zukunft															#2AB7EF									OA05	yes	yes	no	2024-08-28_10h12.02.490	EXNAT_3_training	2024.1.0	2024-08-28 11h07.26.326570 +0200	
						2	0	2	0																													#88BA3F	False	correct rejection	None	765.7110691070557	text_02	81	3	0back_dual_main_click	0	versuchen															#2AB7EF									OA05	yes	yes	no	2024-08-28_10h12.02.490	EXNAT_3_training	2024.1.0	2024-08-28 11h07.26.326570 +0200	
						2	0	2	0																													#D292F3	False	correct rejection	None	801.0950088500977	text_02	82	3	0back_dual_main_click	0	mehr															#2AB7EF									OA05	yes	yes	no	2024-08-28_10h12.02.490	EXNAT_3_training	2024.1.0	2024-08-28 11h07.26.326570 +0200	
						2	0	2	0																													#88BA3F	False	correct rejection	None	765.967845916748	text_02	83	3	0back_dual_main_click	0	über															#2AB7EF									OA05	yes	yes	no	2024-08-28_10h12.02.490	EXNAT_3_training	2024.1.0	2024-08-28 11h07.26.326570 +0200	
						2	0	2	0																													#88BA3F	False	correct rejection	None	766.165018081665	text_02	84	3	0back_dual_main_click	0	die															#2AB7EF									OA05	yes	yes	no	2024-08-28_10h12.02.490	EXNAT_3_training	2024.1.0	2024-08-28 11h07.26.326570 +0200	
						2	0	2	0																													#88BA3F	False	correct rejection	None	882.3738098144531	text_02	85	3	0back_dual_main_click	0	frühe															#2AB7EF									OA05	yes	yes	no	2024-08-28_10h12.02.490	EXNAT_3_training	2024.1.0	2024-08-28 11h07.26.326570 +0200	
						2	0	2	0																													#88BA3F	False	correct rejection	None	765.700101852417	text_02	86	3	0back_dual_main_click	0	Tierwelt															#2AB7EF									OA05	yes	yes	no	2024-08-28_10h12.02.490	EXNAT_3_training	2024.1.0	2024-08-28 11h07.26.326570 +0200	
						2	0	2	0																													#2AB7EF	True	hit	582.2298526763916	1149.9969959259033	text_02	87	3	0back_dual_main_click	0	auf															#2AB7EF									OA05	yes	yes	no	2024-08-28_10h12.02.490	EXNAT_3_training	2024.1.0	2024-08-28 11h07.26.326570 +0200	
						2	0	2	0																													#2AB7EF	True	hit	799.597978591919	1267.1680450439453	text_02	88	3	0back_dual_main_click	0	der															#2AB7EF									OA05	yes	yes	no	2024-08-28_10h12.02.490	EXNAT_3_training	2024.1.0	2024-08-28 11h07.26.326570 +0200	
						2	0	2	0																													#2AB7EF	True	hit	732.2731018066406	1233.2520484924316	text_02	89	3	0back_dual_main_click	0	Südhalbkugel															#2AB7EF									OA05	yes	yes	no	2024-08-28_10h12.02.490	EXNAT_3_training	2024.1.0	2024-08-28 11h07.26.326570 +0200	
						2	0	2	0																													#2AB7EF	True	hit	732.7840328216553	1350.6510257720947	text_02	90	3	0back_dual_main_click	0	zu															#2AB7EF									OA05	yes	yes	no	2024-08-28_10h12.02.490	EXNAT_3_training	2024.1.0	2024-08-28 11h07.26.326570 +0200	
						2	0	2	0																													#D292F3	False	correct rejection	None	1049.5641231536865	text_02	91	3	0back_dual_main_click	0	erfahren.															#2AB7EF									OA05	yes	yes	no	2024-08-28_10h12.02.490	EXNAT_3_training	2024.1.0	2024-08-28 11h07.26.326570 +0200	
						2	0	2	0																																		text_02			0back_dual_main_click			700.8652348518372	Q1	NA	NA	False	4	0																	OA05	yes	yes	no	2024-08-28_10h12.02.490	EXNAT_3_training	2024.1.0	2024-08-28 11h07.26.326570 +0200	
						2	0	2	0																																		text_02			0back_dual_main_click			710.909560918808	Q2	4	d	True	4	0																	OA05	yes	yes	no	2024-08-28_10h12.02.490	EXNAT_3_training	2024.1.0	2024-08-28 11h07.26.326570 +0200	
						2	0	2	0																																		text_02			0back_dual_main_click			717.4847328662872	Q3	2	b	True	4	0																	OA05	yes	yes	no	2024-08-28_10h12.02.490	EXNAT_3_training	2024.1.0	2024-08-28 11h07.26.326570 +0200	
						2	0	2	0																																															720.897353887558	720.8973729610443	720.9371058940887	720.9371199607849	720.9460618495941	720.9460718631744	720.963131904602										OA05	yes	yes	no	2024-08-28_10h12.02.490	EXNAT_3_training	2024.1.0	2024-08-28 11h07.26.326570 +0200	
						3	0	3	0	720.9788670539856																									720.9634568691254			#D292F3	False	correct rejection	None	1500		1	4	1back_single_training1	1																									OA05	yes	yes	no	2024-08-28_10h12.02.490	EXNAT_3_training	2024.1.0	2024-08-28 11h07.26.326570 +0200	
						3	0	3	0																													#D292F3	True	miss	None	500.71215629577637		2	4	1back_single_training1	1																									OA05	yes	yes	no	2024-08-28_10h12.02.490	EXNAT_3_training	2024.1.0	2024-08-28 11h07.26.326570 +0200	
						3	0	3	0																													#F989A2	False	correct rejection	None	1500		3	4	1back_single_training1	1																									OA05	yes	yes	no	2024-08-28_10h12.02.490	EXNAT_3_training	2024.1.0	2024-08-28 11h07.26.326570 +0200	
						3	0	3	0																													#88BA3F	False	correct rejection	None	1500		4	4	1back_single_training1	1																									OA05	yes	yes	no	2024-08-28_10h12.02.490	EXNAT_3_training	2024.1.0	2024-08-28 11h07.26.326570 +0200	
						3	0	3	0																													#88BA3F	True	miss	None	517.3659324645996		5	4	1back_single_training1	1																									OA05	yes	yes	no	2024-08-28_10h12.02.490	EXNAT_3_training	2024.1.0	2024-08-28 11h07.26.326570 +0200	
						3	0	3	0																													#2AB7EF	False	correct rejection	None	1500		6	4	1back_single_training1	1																									OA05	yes	yes	no	2024-08-28_10h12.02.490	EXNAT_3_training	2024.1.0	2024-08-28 11h07.26.326570 +0200	
						3	0	3	0																													#2AB7EF	True	miss	None	1500		7	4	1back_single_training1	1																									OA05	yes	yes	no	2024-08-28_10h12.02.490	EXNAT_3_training	2024.1.0	2024-08-28 11h07.26.326570 +0200	
						3	0	3	0																													#F989A2	False	correct rejection	None	1500		8	4	1back_single_training1	1																									OA05	yes	yes	no	2024-08-28_10h12.02.490	EXNAT_3_training	2024.1.0	2024-08-28 11h07.26.326570 +0200	
						3	0	3	0																													#F989A2	True	hit	552.5360107421875	1500		9	4	1back_single_training1	1																									OA05	yes	yes	no	2024-08-28_10h12.02.490	EXNAT_3_training	2024.1.0	2024-08-28 11h07.26.326570 +0200	
						3	0	3	0																													#2AB7EF	False	correct rejection	None	1500		10	4	1back_single_training1	1																									OA05	yes	yes	no	2024-08-28_10h12.02.490	EXNAT_3_training	2024.1.0	2024-08-28 11h07.26.326570 +0200	
						3	0	3	0																													#88BA3F	False	correct rejection	None	1500		11	4	1back_single_training1	1																									OA05	yes	yes	no	2024-08-28_10h12.02.490	EXNAT_3_training	2024.1.0	2024-08-28 11h07.26.326570 +0200	
						3	0	3	0																													#D292F3	False	correct rejection	None	1500		12	4	1back_single_training1	1																									OA05	yes	yes	no	2024-08-28_10h12.02.490	EXNAT_3_training	2024.1.0	2024-08-28 11h07.26.326570 +0200	
						3	0	3	0																													#2AB7EF	False	correct rejection	None	1500		13	4	1back_single_training1	1																									OA05	yes	yes	no	2024-08-28_10h12.02.490	EXNAT_3_training	2024.1.0	2024-08-28 11h07.26.326570 +0200	
						3	0	3	0																													#F989A2	False	correct rejection	None	1500		14	4	1back_single_training1	1																									OA05	yes	yes	no	2024-08-28_10h12.02.490	EXNAT_3_training	2024.1.0	2024-08-28 11h07.26.326570 +0200	
						3	0	3	0																													#88BA3F	False	correct rejection	None	1500		15	4	1back_single_training1	1																									OA05	yes	yes	no	2024-08-28_10h12.02.490	EXNAT_3_training	2024.1.0	2024-08-28 11h07.26.326570 +0200	
						3	0	3	0																													#D292F3	False	correct rejection	None	1500		16	4	1back_single_training1	1																									OA05	yes	yes	no	2024-08-28_10h12.02.490	EXNAT_3_training	2024.1.0	2024-08-28 11h07.26.326570 +0200	
						3	0	3	0																													#D292F3	True	hit	483.97302627563477	1500		17	4	1back_single_training1	1																									OA05	yes	yes	no	2024-08-28_10h12.02.490	EXNAT_3_training	2024.1.0	2024-08-28 11h07.26.326570 +0200	
						3	0	3	0																													#2AB7EF	False	correct rejection	None	1500		18	4	1back_single_training1	1																									OA05	yes	yes	no	2024-08-28_10h12.02.490	EXNAT_3_training	2024.1.0	2024-08-28 11h07.26.326570 +0200	
						3	0	3	0																													#F989A2	False	correct rejection	None	1500		19	4	1back_single_training1	1																									OA05	yes	yes	no	2024-08-28_10h12.02.490	EXNAT_3_training	2024.1.0	2024-08-28 11h07.26.326570 +0200	
						3	0	3	0																													#88BA3F	False	correct rejection	None	1500		20	4	1back_single_training1	1																									OA05	yes	yes	no	2024-08-28_10h12.02.490	EXNAT_3_training	2024.1.0	2024-08-28 11h07.26.326570 +0200	
						3	0	3	0																													#88BA3F	False	correct rejection	None	1500		1	5	1back_single_training2	1																									OA05	yes	yes	no	2024-08-28_10h12.02.490	EXNAT_3_training	2024.1.0	2024-08-28 11h07.26.326570 +0200	
						3	0	3	0																													#F989A2	False	correct rejection	None	1500		2	5	1back_single_training2	1																									OA05	yes	yes	no	2024-08-28_10h12.02.490	EXNAT_3_training	2024.1.0	2024-08-28 11h07.26.326570 +0200	
						3	0	3	0																													#F989A2	True	hit	517.8220272064209	1500		3	5	1back_single_training2	1																									OA05	yes	yes	no	2024-08-28_10h12.02.490	EXNAT_3_training	2024.1.0	2024-08-28 11h07.26.326570 +0200	
						3	0	3	0																													#88BA3F	False	correct rejection	None	1500		4	5	1back_single_training2	1																									OA05	yes	yes	no	2024-08-28_10h12.02.490	EXNAT_3_training	2024.1.0	2024-08-28 11h07.26.326570 +0200	
						3	0	3	0																													#2AB7EF	False	correct rejection	None	1500		5	5	1back_single_training2	1																									OA05	yes	yes	no	2024-08-28_10h12.02.490	EXNAT_3_training	2024.1.0	2024-08-28 11h07.26.326570 +0200	
						3	0	3	0																													#2AB7EF	True	hit	567.4967765808105	1500		6	5	1back_single_training2	1																									OA05	yes	yes	no	2024-08-28_10h12.02.490	EXNAT_3_training	2024.1.0	2024-08-28 11h07.26.326570 +0200	
						3	0	3	0																													#D292F3	False	correct rejection	None	1500		7	5	1back_single_training2	1																									OA05	yes	yes	no	2024-08-28_10h12.02.490	EXNAT_3_training	2024.1.0	2024-08-28 11h07.26.326570 +0200	
						3	0	3	0																													#F989A2	False	correct rejection	None	1500		8	5	1back_single_training2	1																									OA05	yes	yes	no	2024-08-28_10h12.02.490	EXNAT_3_training	2024.1.0	2024-08-28 11h07.26.326570 +0200	
						3	0	3	0																													#88BA3F	False	correct rejection	None	1500		9	5	1back_single_training2	1																									OA05	yes	yes	no	2024-08-28_10h12.02.490	EXNAT_3_training	2024.1.0	2024-08-28 11h07.26.326570 +0200	
						3	0	3	0																													#D292F3	False	correct rejection	None	1500		10	5	1back_single_training2	1																									OA05	yes	yes	no	2024-08-28_10h12.02.490	EXNAT_3_training	2024.1.0	2024-08-28 11h07.26.326570 +0200	
						3	0	3	0																													#2AB7EF	False	correct rejection	None	1500		11	5	1back_single_training2	1																									OA05	yes	yes	no	2024-08-28_10h12.02.490	EXNAT_3_training	2024.1.0	2024-08-28 11h07.26.326570 +0200	
						3	0	3	0																													#D292F3	False	correct rejection	None	1500		12	5	1back_single_training2	1																									OA05	yes	yes	no	2024-08-28_10h12.02.490	EXNAT_3_training	2024.1.0	2024-08-28 11h07.26.326570 +0200	
						3	0	3	0																													#D292F3	True	hit	433.8879585266113	1500		13	5	1back_single_training2	1																									OA05	yes	yes	no	2024-08-28_10h12.02.490	EXNAT_3_training	2024.1.0	2024-08-28 11h07.26.326570 +0200	
						3	0	3	0																													#2AB7EF	False	correct rejection	None	1500		14	5	1back_single_training2	1																									OA05	yes	yes	no	2024-08-28_10h12.02.490	EXNAT_3_training	2024.1.0	2024-08-28 11h07.26.326570 +0200	
						3	0	3	0																													#F989A2	False	correct rejection	None	1500		15	5	1back_single_training2	1																									OA05	yes	yes	no	2024-08-28_10h12.02.490	EXNAT_3_training	2024.1.0	2024-08-28 11h07.26.326570 +0200	
						3	0	3	0																													#F989A2	True	hit	485.7158660888672	1500		16	5	1back_single_training2	1																									OA05	yes	yes	no	2024-08-28_10h12.02.490	EXNAT_3_training	2024.1.0	2024-08-28 11h07.26.326570 +0200	
						3	0	3	0																													#2AB7EF	False	correct rejection	None	1500		17	5	1back_single_training2	1																									OA05	yes	yes	no	2024-08-28_10h12.02.490	EXNAT_3_training	2024.1.0	2024-08-28 11h07.26.326570 +0200	
						3	0	3	0																													#88BA3F	False	correct rejection	None	1500		18	5	1back_single_training2	1																									OA05	yes	yes	no	2024-08-28_10h12.02.490	EXNAT_3_training	2024.1.0	2024-08-28 11h07.26.326570 +0200	
						3	0	3	0																													#D292F3	False	correct rejection	None	1500		19	5	1back_single_training2	1																									OA05	yes	yes	no	2024-08-28_10h12.02.490	EXNAT_3_training	2024.1.0	2024-08-28 11h07.26.326570 +0200	
						3	0	3	0																													#D292F3	True	hit	500.6740093231201	1500		20	5	1back_single_training2	1																									OA05	yes	yes	no	2024-08-28_10h12.02.490	EXNAT_3_training	2024.1.0	2024-08-28 11h07.26.326570 +0200	
						3	0	3	0																													#D292F3	False	correct rejection	None	1500		1	6	1back_single_main	1																									OA05	yes	yes	no	2024-08-28_10h12.02.490	EXNAT_3_training	2024.1.0	2024-08-28 11h07.26.326570 +0200	
						3	0	3	0																													#88BA3F	False	correct rejection	None	1500		2	6	1back_single_main	1																									OA05	yes	yes	no	2024-08-28_10h12.02.490	EXNAT_3_training	2024.1.0	2024-08-28 11h07.26.326570 +0200	
						3	0	3	0																													#F989A2	False	correct rejection	None	1500		3	6	1back_single_main	1																									OA05	yes	yes	no	2024-08-28_10h12.02.490	EXNAT_3_training	2024.1.0	2024-08-28 11h07.26.326570 +0200	
						3	0	3	0																													#2AB7EF	False	correct rejection	None	1500		4	6	1back_single_main	1																									OA05	yes	yes	no	2024-08-28_10h12.02.490	EXNAT_3_training	2024.1.0	2024-08-28 11h07.26.326570 +0200	
						3	0	3	0																													#2AB7EF	True	hit	433.8948726654053	1500		5	6	1back_single_main	1																									OA05	yes	yes	no	2024-08-28_10h12.02.490	EXNAT_3_training	2024.1.0	2024-08-28 11h07.26.326570 +0200	
						3	0	3	0																													#F989A2	False	correct rejection	None	1500		6	6	1back_single_main	1																									OA05	yes	yes	no	2024-08-28_10h12.02.490	EXNAT_3_training	2024.1.0	2024-08-28 11h07.26.326570 +0200	
						3	0	3	0																													#D292F3	False	correct rejection	None	1500		7	6	1back_single_main	1																									OA05	yes	yes	no	2024-08-28_10h12.02.490	EXNAT_3_training	2024.1.0	2024-08-28 11h07.26.326570 +0200	
						3	0	3	0																													#2AB7EF	False	correct rejection	None	1500		8	6	1back_single_main	1																									OA05	yes	yes	no	2024-08-28_10h12.02.490	EXNAT_3_training	2024.1.0	2024-08-28 11h07.26.326570 +0200	
						3	0	3	0																													#D292F3	False	correct rejection	None	1500		9	6	1back_single_main	1																									OA05	yes	yes	no	2024-08-28_10h12.02.490	EXNAT_3_training	2024.1.0	2024-08-28 11h07.26.326570 +0200	
						3	0	3	0																													#F989A2	False	correct rejection	None	1500		10	6	1back_single_main	1																									OA05	yes	yes	no	2024-08-28_10h12.02.490	EXNAT_3_training	2024.1.0	2024-08-28 11h07.26.326570 +0200	
						3	0	3	0																													#88BA3F	False	correct rejection	None	1500		11	6	1back_single_main	1																									OA05	yes	yes	no	2024-08-28_10h12.02.490	EXNAT_3_training	2024.1.0	2024-08-28 11h07.26.326570 +0200	
						3	0	3	0																													#88BA3F	True	hit	451.0679244995117	1500		12	6	1back_single_main	1																									OA05	yes	yes	no	2024-08-28_10h12.02.490	EXNAT_3_training	2024.1.0	2024-08-28 11h07.26.326570 +0200	
						3	0	3	0																													#88BA3F	True	hit	868.0639266967773	1500		13	6	1back_single_main	1																									OA05	yes	yes	no	2024-08-28_10h12.02.490	EXNAT_3_training	2024.1.0	2024-08-28 11h07.26.326570 +0200	
						3	0	3	0																													#F989A2	False	correct rejection	None	1500		14	6	1back_single_main	1																									OA05	yes	yes	no	2024-08-28_10h12.02.490	EXNAT_3_training	2024.1.0	2024-08-28 11h07.26.326570 +0200	
						3	0	3	0																													#F989A2	True	hit	649.33180809021	1500		15	6	1back_single_main	1																									OA05	yes	yes	no	2024-08-28_10h12.02.490	EXNAT_3_training	2024.1.0	2024-08-28 11h07.26.326570 +0200	
						3	0	3	0																													#F989A2	True	hit	585.9041213989258	1500		16	6	1back_single_main	1																									OA05	yes	yes	no	2024-08-28_10h12.02.490	EXNAT_3_training	2024.1.0	2024-08-28 11h07.26.326570 +0200	
						3	0	3	0																													#D292F3	False	correct rejection	None	1500		17	6	1back_single_main	1																									OA05	yes	yes	no	2024-08-28_10h12.02.490	EXNAT_3_training	2024.1.0	2024-08-28 11h07.26.326570 +0200	
						3	0	3	0																													#2AB7EF	False	correct rejection	None	1500		18	6	1back_single_main	1																									OA05	yes	yes	no	2024-08-28_10h12.02.490	EXNAT_3_training	2024.1.0	2024-08-28 11h07.26.326570 +0200	
						3	0	3	0																													#D292F3	False	correct rejection	None	1500		19	6	1back_single_main	1																									OA05	yes	yes	no	2024-08-28_10h12.02.490	EXNAT_3_training	2024.1.0	2024-08-28 11h07.26.326570 +0200	
						3	0	3	0																													#2AB7EF	False	correct rejection	None	1500		20	6	1back_single_main	1																									OA05	yes	yes	no	2024-08-28_10h12.02.490	EXNAT_3_training	2024.1.0	2024-08-28 11h07.26.326570 +0200	
						3	0	3	0																													#D292F3	False	correct rejection	None	1500		21	6	1back_single_main	1																									OA05	yes	yes	no	2024-08-28_10h12.02.490	EXNAT_3_training	2024.1.0	2024-08-28 11h07.26.326570 +0200	
						3	0	3	0																													#88BA3F	False	correct rejection	None	1500		22	6	1back_single_main	1																									OA05	yes	yes	no	2024-08-28_10h12.02.490	EXNAT_3_training	2024.1.0	2024-08-28 11h07.26.326570 +0200	
						3	0	3	0																													#2AB7EF	False	correct rejection	None	1500		23	6	1back_single_main	1																									OA05	yes	yes	no	2024-08-28_10h12.02.490	EXNAT_3_training	2024.1.0	2024-08-28 11h07.26.326570 +0200	
						3	0	3	0																													#88BA3F	False	correct rejection	None	1500		24	6	1back_single_main	1																									OA05	yes	yes	no	2024-08-28_10h12.02.490	EXNAT_3_training	2024.1.0	2024-08-28 11h07.26.326570 +0200	
						3	0	3	0																													#F989A2	False	correct rejection	None	1500		25	6	1back_single_main	1																									OA05	yes	yes	no	2024-08-28_10h12.02.490	EXNAT_3_training	2024.1.0	2024-08-28 11h07.26.326570 +0200	
						3	0	3	0																													#2AB7EF	False	correct rejection	None	1500		26	6	1back_single_main	1																									OA05	yes	yes	no	2024-08-28_10h12.02.490	EXNAT_3_training	2024.1.0	2024-08-28 11h07.26.326570 +0200	
						3	0	3	0																													#D292F3	False	correct rejection	None	1500		27	6	1back_single_main	1																									OA05	yes	yes	no	2024-08-28_10h12.02.490	EXNAT_3_training	2024.1.0	2024-08-28 11h07.26.326570 +0200	
						3	0	3	0																													#2AB7EF	False	correct rejection	None	1500		28	6	1back_single_main	1																									OA05	yes	yes	no	2024-08-28_10h12.02.490	EXNAT_3_training	2024.1.0	2024-08-28 11h07.26.326570 +0200	
						3	0	3	0																													#88BA3F	False	correct rejection	None	1500		29	6	1back_single_main	1																									OA05	yes	yes	no	2024-08-28_10h12.02.490	EXNAT_3_training	2024.1.0	2024-08-28 11h07.26.326570 +0200	
						3	0	3	0																													#F989A2	False	correct rejection	None	1500		30	6	1back_single_main	1																									OA05	yes	yes	no	2024-08-28_10h12.02.490	EXNAT_3_training	2024.1.0	2024-08-28 11h07.26.326570 +0200	
						3	0	3	0																													#2AB7EF	False	correct rejection	None	1500		31	6	1back_single_main	1																									OA05	yes	yes	no	2024-08-28_10h12.02.490	EXNAT_3_training	2024.1.0	2024-08-28 11h07.26.326570 +0200	
						3	0	3	0																													#F989A2	False	correct rejection	None	1500		32	6	1back_single_main	1																									OA05	yes	yes	no	2024-08-28_10h12.02.490	EXNAT_3_training	2024.1.0	2024-08-28 11h07.26.326570 +0200	
						3	0	3	0																													#D292F3	False	correct rejection	None	1500		33	6	1back_single_main	1																									OA05	yes	yes	no	2024-08-28_10h12.02.490	EXNAT_3_training	2024.1.0	2024-08-28 11h07.26.326570 +0200	
						3	0	3	0																													#88BA3F	False	correct rejection	None	1500		34	6	1back_single_main	1																									OA05	yes	yes	no	2024-08-28_10h12.02.490	EXNAT_3_training	2024.1.0	2024-08-28 11h07.26.326570 +0200	
						3	0	3	0																													#D292F3	False	correct rejection	None	1500		35	6	1back_single_main	1																									OA05	yes	yes	no	2024-08-28_10h12.02.490	EXNAT_3_training	2024.1.0	2024-08-28 11h07.26.326570 +0200	
						3	0	3	0																													#88BA3F	False	correct rejection	None	1500		36	6	1back_single_main	1																									OA05	yes	yes	no	2024-08-28_10h12.02.490	EXNAT_3_training	2024.1.0	2024-08-28 11h07.26.326570 +0200	
						3	0	3	0																													#88BA3F	True	hit	483.989953994751	1500		37	6	1back_single_main	1																									OA05	yes	yes	no	2024-08-28_10h12.02.490	EXNAT_3_training	2024.1.0	2024-08-28 11h07.26.326570 +0200	
						3	0	3	0																													#D292F3	False	correct rejection	None	1500		38	6	1back_single_main	1																									OA05	yes	yes	no	2024-08-28_10h12.02.490	EXNAT_3_training	2024.1.0	2024-08-28 11h07.26.326570 +0200	
						3	0	3	0																													#88BA3F	False	correct rejection	None	1500		39	6	1back_single_main	1																									OA05	yes	yes	no	2024-08-28_10h12.02.490	EXNAT_3_training	2024.1.0	2024-08-28 11h07.26.326570 +0200	
						3	0	3	0																													#88BA3F	True	hit	635.9641551971436	1500		40	6	1back_single_main	1																									OA05	yes	yes	no	2024-08-28_10h12.02.490	EXNAT_3_training	2024.1.0	2024-08-28 11h07.26.326570 +0200	
						3	0	3	0																													#F989A2	False	correct rejection	None	1500		41	6	1back_single_main	1																									OA05	yes	yes	no	2024-08-28_10h12.02.490	EXNAT_3_training	2024.1.0	2024-08-28 11h07.26.326570 +0200	
						3	0	3	0																													#2AB7EF	False	correct rejection	None	1500		42	6	1back_single_main	1																									OA05	yes	yes	no	2024-08-28_10h12.02.490	EXNAT_3_training	2024.1.0	2024-08-28 11h07.26.326570 +0200	
						3	0	3	0																													#D292F3	False	correct rejection	None	1500		43	6	1back_single_main	1																									OA05	yes	yes	no	2024-08-28_10h12.02.490	EXNAT_3_training	2024.1.0	2024-08-28 11h07.26.326570 +0200	
						3	0	3	0																													#2AB7EF	False	correct rejection	None	1500		44	6	1back_single_main	1																									OA05	yes	yes	no	2024-08-28_10h12.02.490	EXNAT_3_training	2024.1.0	2024-08-28 11h07.26.326570 +0200	
						3	0	3	0																													#F989A2	False	correct rejection	None	1500		45	6	1back_single_main	1																									OA05	yes	yes	no	2024-08-28_10h12.02.490	EXNAT_3_training	2024.1.0	2024-08-28 11h07.26.326570 +0200	
						3	0	3	0																													#2AB7EF	False	correct rejection	None	1500		46	6	1back_single_main	1																									OA05	yes	yes	no	2024-08-28_10h12.02.490	EXNAT_3_training	2024.1.0	2024-08-28 11h07.26.326570 +0200	
						3	0	3	0																													#88BA3F	False	correct rejection	None	1500		47	6	1back_single_main	1																									OA05	yes	yes	no	2024-08-28_10h12.02.490	EXNAT_3_training	2024.1.0	2024-08-28 11h07.26.326570 +0200	
						3	0	3	0																													#F989A2	False	correct rejection	None	1500		48	6	1back_single_main	1																									OA05	yes	yes	no	2024-08-28_10h12.02.490	EXNAT_3_training	2024.1.0	2024-08-28 11h07.26.326570 +0200	
						3	0	3	0																													#F989A2	True	hit	636.0080242156982	1500		49	6	1back_single_main	1																									OA05	yes	yes	no	2024-08-28_10h12.02.490	EXNAT_3_training	2024.1.0	2024-08-28 11h07.26.326570 +0200	
						3	0	3	0																													#F989A2	True	hit	567.5139427185059	1500		50	6	1back_single_main	1																									OA05	yes	yes	no	2024-08-28_10h12.02.490	EXNAT_3_training	2024.1.0	2024-08-28 11h07.26.326570 +0200	
						3	0	3	0																													#88BA3F	False	correct rejection	None	1500		51	6	1back_single_main	1																									OA05	yes	yes	no	2024-08-28_10h12.02.490	EXNAT_3_training	2024.1.0	2024-08-28 11h07.26.326570 +0200	
						3	0	3	0																													#88BA3F	True	hit	517.3628330230713	1500		52	6	1back_single_main	1																									OA05	yes	yes	no	2024-08-28_10h12.02.490	EXNAT_3_training	2024.1.0	2024-08-28 11h07.26.326570 +0200	
						3	0	3	0																													#2AB7EF	False	correct rejection	None	1500		53	6	1back_single_main	1																									OA05	yes	yes	no	2024-08-28_10h12.02.490	EXNAT_3_training	2024.1.0	2024-08-28 11h07.26.326570 +0200	
						3	0	3	0																													#D292F3	False	correct rejection	None	1500		54	6	1back_single_main	1																									OA05	yes	yes	no	2024-08-28_10h12.02.490	EXNAT_3_training	2024.1.0	2024-08-28 11h07.26.326570 +0200	
						3	0	3	0																													#2AB7EF	False	correct rejection	None	1500		55	6	1back_single_main	1																									OA05	yes	yes	no	2024-08-28_10h12.02.490	EXNAT_3_training	2024.1.0	2024-08-28 11h07.26.326570 +0200	
						3	0	3	0																													#D292F3	False	correct rejection	None	1500		56	6	1back_single_main	1																									OA05	yes	yes	no	2024-08-28_10h12.02.490	EXNAT_3_training	2024.1.0	2024-08-28 11h07.26.326570 +0200	
						3	0	3	0																													#88BA3F	False	correct rejection	None	1500		57	6	1back_single_main	1																									OA05	yes	yes	no	2024-08-28_10h12.02.490	EXNAT_3_training	2024.1.0	2024-08-28 11h07.26.326570 +0200	
						3	0	3	0																													#2AB7EF	False	correct rejection	None	1500		58	6	1back_single_main	1																									OA05	yes	yes	no	2024-08-28_10h12.02.490	EXNAT_3_training	2024.1.0	2024-08-28 11h07.26.326570 +0200	
						3	0	3	0																													#F989A2	False	correct rejection	None	1500		59	6	1back_single_main	1																									OA05	yes	yes	no	2024-08-28_10h12.02.490	EXNAT_3_training	2024.1.0	2024-08-28 11h07.26.326570 +0200	
						3	0	3	0																													#D292F3	False	correct rejection	None	1500		60	6	1back_single_main	1																									OA05	yes	yes	no	2024-08-28_10h12.02.490	EXNAT_3_training	2024.1.0	2024-08-28 11h07.26.326570 +0200	
						3	0	3	0																											966.4406499862671	966.4406578540802	#D292F3	False	correct rejection	None	2000	text_03	1	7	1back_dual_main_click	1	Orang-Utans																								OA05	yes	yes	no	2024-08-28_10h12.02.490	EXNAT_3_training	2024.1.0	2024-08-28 11h07.26.326570 +0200	
						3	0	3	0																													#2AB7EF	False	correct rejection	None	2000	text_03	2	7	1back_dual_main_click	1	bauen																								OA05	yes	yes	no	2024-08-28_10h12.02.490	EXNAT_3_training	2024.1.0	2024-08-28 11h07.26.326570 +0200	
						3	0	3	0																													#F989A2	False	correct rejection	None	2000	text_03	3	7	1back_dual_main_click	1	sich																								OA05	yes	yes	no	2024-08-28_10h12.02.490	EXNAT_3_training	2024.1.0	2024-08-28 11h07.26.326570 +0200	
						3	0	3	0																													#F989A2	True	hit	615.056037902832	2000	text_03	4	7	1back_dual_main_click	1	jede																								OA05	yes	yes	no	2024-08-28_10h12.02.490	EXNAT_3_training	2024.1.0	2024-08-28 11h07.26.326570 +0200	
						3	0	3	0																													#D292F3	False	correct rejection	None	2000	text_03	5	7	1back_dual_main_click	1	Nacht																								OA05	yes	yes	no	2024-08-28_10h12.02.490	EXNAT_3_training	2024.1.0	2024-08-28 11h07.26.326570 +0200	
						3	0	3	0																													#88BA3F	False	correct rejection	None	2000	text_03	6	7	1back_dual_main_click	1	gemütliche																								OA05	yes	yes	no	2024-08-28_10h12.02.490	EXNAT_3_training	2024.1.0	2024-08-28 11h07.26.326570 +0200	
						3	0	3	0																													#88BA3F	True	hit	1099.308967590332	2000	text_03	7	7	1back_dual_main_click	1	Schlafnester																								OA05	yes	yes	no	2024-08-28_10h12.02.490	EXNAT_3_training	2024.1.0	2024-08-28 11h07.26.326570 +0200	
						3	0	3	0																													#D292F3	False	correct rejection	None	2000	text_03	8	7	1back_dual_main_click	1	hoch																								OA05	yes	yes	no	2024-08-28_10h12.02.490	EXNAT_3_training	2024.1.0	2024-08-28 11h07.26.326570 +0200	
						3	0	3	0																													#F989A2	False	correct rejection	None	2000	text_03	9	7	1back_dual_main_click	1	in																								OA05	yes	yes	no	2024-08-28_10h12.02.490	EXNAT_3_training	2024.1.0	2024-08-28 11h07.26.326570 +0200	
						3	0	3	0																													#88BA3F	False	correct rejection	None	2000	text_03	10	7	1back_dual_main_click	1	den																								OA05	yes	yes	no	2024-08-28_10h12.02.490	EXNAT_3_training	2024.1.0	2024-08-28 11h07.26.326570 +0200	
						3	0	3	0																													#2AB7EF	False	correct rejection	None	2000	text_03	11	7	1back_dual_main_click	1	Bäumen.																								OA05	yes	yes	no	2024-08-28_10h12.02.490	EXNAT_3_training	2024.1.0	2024-08-28 11h07.26.326570 +0200	
						3	0	3	0																													#2AB7EF	True	hit	699.3801593780518	2000	text_03	12	7	1back_dual_main_click	1	Diese																								OA05	yes	yes	no	2024-08-28_10h12.02.490	EXNAT_3_training	2024.1.0	2024-08-28 11h07.26.326570 +0200	
