loop_run1_single_reading.thisRepN;loop_run1_single_reading.thisTrialN;loop_run1_single_reading.thisN;loop_run1_single_reading.thisIndex;loop_run2_single_nback.thisRepN;loop_run2_single_nback.thisTrialN;loop_run2_single_nback.thisN;loop_run2_single_nback.thisIndex;loop_dual_task_blocks.thisRepN;loop_dual_task_blocks.thisTrialN;loop_dual_task_blocks.thisN;loop_dual_task_blocks.thisIndex;TriggerCount;TriggerTime;colour;global_onset_time;onset_time_rel2trigger;target;nback_response;nback_RT;duration;text_nr;trial_nr;block_nr_exp;run_nr;block_nr_run;block_name;n-back_level;word;question;button_pressed;chosen_ans;ans_correct;participant;session;testing_mode;RT_per_rectangle_oneback_single;RT_per_rectangle_twoback_single;RT_per_letter_baseline;RT_per_letter_oneback_dual;RT_per_letter_twoback_dual;date;expName;psychopyVersion;frameRate
0;0;0;0;;;;;;;;;1;545.0308571;#D292F3;555.9371631;10.90630603;None;None;None;333.9502504;text_01;1;1;1;1;Reading_Baseline_main_no_click;None;Beim;;;;;MA01;1;no;670;1992;62;138;276;2024-08-22_08h56.49.616;EXNAT_3_fMRI_Psychopy2023.1.3;03.01.23;75.02153538
0;0;0;0;;;;;;;;;;;#F989A2;556.28178;11.25092292;None;None;None;368.6464292;text_01;2;1;1;1;Reading_Baseline_main_no_click;None;Anblick;;;;;MA01;1;no;670;1992;62;138;276;2024-08-22_08h56.49.616;EXNAT_3_fMRI_Psychopy2023.1.3;03.01.23;75.02153538
0;0;0;0;;;;;;;;;;;#D292F3;556.6543131;11.623456;None;None;None;316.1139619;text_01;3;1;1;1;Reading_Baseline_main_no_click;None;der;;;;;MA01;1;no;670;1992;62;138;276;2024-08-22_08h56.49.616;EXNAT_3_fMRI_Psychopy2023.1.3;03.01.23;75.02153538
0;0;0;0;;;;;;;;;;;#88BA3F;556.973968;11.94311094;None;None;None;347.7851506;text_01;4;1;1;1;Reading_Baseline_main_no_click;None;Tiere;;;;;MA01;1;no;670;1992;62;138;276;2024-08-22_08h56.49.616;EXNAT_3_fMRI_Psychopy2023.1.3;03.01.23;75.02153538
0;0;0;0;;;;;;;;;;;#88BA3F;557.3338971;12.30304003;None;None;None;333.9502504;text_01;5;1;1;1;Reading_Baseline_main_no_click;None;wird;;;;;MA01;1;no;670;1992;62;138;276;2024-08-22_08h56.49.616;EXNAT_3_fMRI_Psychopy2023.1.3;03.01.23;75.02153538
0;0;0;0;;;;;;;;;;;#D292F3;557.6803401;12.64948297;None;None;None;347.7851506;text_01;6;1;1;1;Reading_Baseline_main_no_click;None;klar,;;;;;MA01;1;no;670;1992;62;138;276;2024-08-22_08h56.49.616;EXNAT_3_fMRI_Psychopy2023.1.3;03.01.23;75.02153538
0;0;0;0;;;;;;;;;;;#2AB7EF;558.040309;13.00945187;None;None;None;347.7851506;text_01;7;1;1;1;Reading_Baseline_main_no_click;None;warum;;;;;MA01;1;no;670;1992;62;138;276;2024-08-22_08h56.49.616;EXNAT_3_fMRI_Psychopy2023.1.3;03.01.23;75.02153538
0;0;0;0;;;;;;;;;;;#D292F3;558.399404;13.36854696;None;None;None;316.1139619;text_01;8;1;1;1;Reading_Baseline_main_no_click;None;die;;;;;MA01;1;no;670;1992;62;138;276;2024-08-22_08h56.49.616;EXNAT_3_fMRI_Psychopy2023.1.3;03.01.23;75.02153538
0;0;0;0;;;;;;;;;;;#F989A2;558.7201009;13.68924379;None;None;None;376.9253756;text_01;9;1;1;1;Reading_Baseline_main_no_click;None;Seeleute;;;;;MA01;1;no;670;1992;62;138;276;2024-08-22_08h56.49.616;EXNAT_3_fMRI_Psychopy2023.1.3;03.01.23;75.02153538
0;0;0;0;;;;;;;;;;;#2AB7EF;559.1068299;14.0759728;None;None;None;396.6695069;text_01;10;1;1;1;Reading_Baseline_main_no_click;None;vergangener;;;;;MA01;1;no;670;1992;62;138;276;2024-08-22_08h56.49.616;EXNAT_3_fMRI_Psychopy2023.1.3;03.01.23;75.02153538
0;0;0;0;;;;;;;;;;;#F989A2;559.5068171;14.47596002;None;None;None;402.0642123;text_01;11;1;1;1;Reading_Baseline_main_no_click;None;Jahrhunderte;;;;;MA01;1;no;670;1992;62;138;276;2024-08-22_08h56.49.616;EXNAT_3_fMRI_Psychopy2023.1.3;03.01.23;75.02153538
0;0;0;0;;;;;;;;;;;#D292F3;559.9195261;14.88866901;None;None;None;347.7851506;text_01;12;1;1;1;Reading_Baseline_main_no_click;None;Angst;;;;;MA01;1;no;670;1992;62;138;276;2024-08-22_08h56.49.616;EXNAT_3_fMRI_Psychopy2023.1.3;03.01.23;75.02153538
0;0;0;0;;;;;;;;;;;#F989A2;560.2791841;15.24832702;None;None;None;316.1139619;text_01;13;1;1;1;Reading_Baseline_main_no_click;None;vor;;;;;MA01;1;no;670;1992;62;138;276;2024-08-22_08h56.49.616;EXNAT_3_fMRI_Psychopy2023.1.3;03.01.23;75.02153538
0;0;0;0;;;;;;;;;;;#D292F3;560.5990989;15.56824183;None;None;None;407.0268602;text_01;14;1;1;1;Reading_Baseline_main_no_click;None;Seeungeheuern;;;;;MA01;1;no;670;1992;62;138;276;2024-08-22_08h56.49.616;EXNAT_3_fMRI_Psychopy2023.1.3;03.01.23;75.02153538
0;0;0;0;;;;;;;;;;;#88BA3F;561.012816;15.98195887;None;None;None;368.6464292;text_01;15;1;1;1;Reading_Baseline_main_no_click;None;hatten.;;;;;MA01;1;no;670;1992;62;138;276;2024-08-22_08h56.49.616;EXNAT_3_fMRI_Psychopy2023.1.3;03.01.23;75.02153538
0;0;0;0;;;;;;;;;;;#D292F3;561.3860109;16.3551538;None;None;None;390.7602758;text_01;16;1;1;1;Reading_Baseline_main_no_click;None;Meterlange;;;;;MA01;1;no;670;1992;62;138;276;2024-08-22_08h56.49.616;EXNAT_3_fMRI_Psychopy2023.1.3;03.01.23;75.02153538
0;0;0;0;;;;;;;;;;;#2AB7EF;561.7856431;16.75478601;None;None;None;384.2279238;text_01;17;1;1;1;Reading_Baseline_main_no_click;None;Fangarme,;;;;;MA01;1;no;670;1992;62;138;276;2024-08-22_08h56.49.616;EXNAT_3_fMRI_Psychopy2023.1.3;03.01.23;75.02153538
0;0;0;0;;;;;;;;;;;#D292F3;562.1854479;17.15459085;None;None;None;359.0890871;text_01;18;1;1;1;Reading_Baseline_main_no_click;None;spitze;;;;;MA01;1;no;670;1992;62;138;276;2024-08-22_08h56.49.616;EXNAT_3_fMRI_Psychopy2023.1.3;03.01.23;75.02153538
0;0;0;0;;;;;;;;;;;#D292F3;562.558399;17.52754188;None;None;None;359.0890871;text_01;19;1;1;1;Reading_Baseline_main_no_click;None;Mäuler;;;;;MA01;1;no;670;1992;62;138;276;2024-08-22_08h56.49.616;EXNAT_3_fMRI_Psychopy2023.1.3;03.01.23;75.02153538
0;0;0;0;;;;;;;;;;;#88BA3F;562.930949;17.90009189;None;None;None;316.1139619;text_01;20;1;1;1;Reading_Baseline_main_no_click;None;und;;;;;MA01;1;no;670;1992;62;138;276;2024-08-22_08h56.49.616;EXNAT_3_fMRI_Psychopy2023.1.3;03.01.23;75.02153538
0;0;0;0;;;;;;;;;;;#F989A2;563.2509871;18.22012997;None;None;None;368.6464292;text_01;21;1;1;1;Reading_Baseline_main_no_click;None;riesige;;;;;MA01;1;no;670;1992;62;138;276;2024-08-22_08h56.49.616;EXNAT_3_fMRI_Psychopy2023.1.3;03.01.23;75.02153538
0;0;0;0;;;;;;;;;;;#2AB7EF;563.6241879;18.59333086;None;None;None;347.7851506;text_01;22;1;1;1;Reading_Baseline_main_no_click;None;Augen;;;;;MA01;1;no;670;1992;62;138;276;2024-08-22_08h56.49.616;EXNAT_3_fMRI_Psychopy2023.1.3;03.01.23;75.02153538
0;0;0;0;;;;;;;;;;;#88BA3F;563.98435;18.95349288;None;None;None;384.2279238;text_01;23;1;1;1;Reading_Baseline_main_no_click;None;verleihen;;;;;MA01;1;no;670;1992;62;138;276;2024-08-22_08h56.49.616;EXNAT_3_fMRI_Psychopy2023.1.3;03.01.23;75.02153538
0;0;0;0;;;;;;;;;;;#2AB7EF;564.3837931;19.35293603;None;None;None;316.1139619;text_01;24;1;1;1;Reading_Baseline_main_no_click;None;den;;;;;MA01;1;no;670;1992;62;138;276;2024-08-22_08h56.49.616;EXNAT_3_fMRI_Psychopy2023.1.3;03.01.23;75.02153538
0;0;0;0;;;;;;;;;;;#88BA3F;564.7041669;19.6733098;None;None;None;359.0890871;text_01;25;1;1;1;Reading_Baseline_main_no_click;None;großen;;;;;MA01;1;no;670;1992;62;138;276;2024-08-22_08h56.49.616;EXNAT_3_fMRI_Psychopy2023.1.3;03.01.23;75.02153538
0;0;0;0;;;;;;;;;;;#2AB7EF;565.0774;20.04654288;None;None;None;376.9253756;text_01;26;1;1;1;Reading_Baseline_main_no_click;None;Kalmaren;;;;;MA01;1;no;670;1992;62;138;276;2024-08-22_08h56.49.616;EXNAT_3_fMRI_Psychopy2023.1.3;03.01.23;75.02153538
0;0;0;0;;;;;;;;;;;#88BA3F;565.4633939;20.43253684;None;None;None;316.1139619;text_01;27;1;1;1;Reading_Baseline_main_no_click;None;ein;;;;;MA01;1;no;670;1992;62;138;276;2024-08-22_08h56.49.616;EXNAT_3_fMRI_Psychopy2023.1.3;03.01.23;75.02153538
0;0;0;0;;;;;;;;;;;#2AB7EF;565.784029;20.75317192;None;None;None;419.9005008;text_01;28;1;1;1;Reading_Baseline_main_no_click;None;furchterregendes;;;;;MA01;1;no;670;1992;62;138;276;2024-08-22_08h56.49.616;EXNAT_3_fMRI_Psychopy2023.1.3;03.01.23;75.02153538
0;0;0;0;;;;;;;;;;;#88BA3F;566.210053;21.17919588;None;None;None;384.2279238;text_01;29;1;1;1;Reading_Baseline_main_no_click;None;Aussehen.;;;;;MA01;1;no;670;1992;62;138;276;2024-08-22_08h56.49.616;EXNAT_3_fMRI_Psychopy2023.1.3;03.01.23;75.02153538
0;0;0;0;;;;;;;;;;;#F989A2;566.597297;21.56643987;None;None;None;316.1139619;text_01;30;1;1;1;Reading_Baseline_main_no_click;None;Vor;;;;;MA01;1;no;670;1992;62;138;276;2024-08-22_08h56.49.616;EXNAT_3_fMRI_Psychopy2023.1.3;03.01.23;75.02153538
0;0;0;0;;;;;;;;;;;#D292F3;566.9165759;21.88571882;None;None;None;316.1139619;text_01;31;1;1;1;Reading_Baseline_main_no_click;None;der;;;;;MA01;1;no;670;1992;62;138;276;2024-08-22_08h56.49.616;EXNAT_3_fMRI_Psychopy2023.1.3;03.01.23;75.02153538
0;0;0;0;;;;;;;;;;;#88BA3F;567.237005;22.20614791;None;None;None;347.7851506;text_01;32;1;1;1;Reading_Baseline_main_no_click;None;Küste;;;;;MA01;1;no;670;1992;62;138;276;2024-08-22_08h56.49.616;EXNAT_3_fMRI_Psychopy2023.1.3;03.01.23;75.02153538
0;0;0;0;;;;;;;;;;;#2AB7EF;567.597012;22.56615496;None;None;None;359.0890871;text_01;33;1;1;1;Reading_Baseline_main_no_click;None;Chiles;;;;;MA01;1;no;670;1992;62;138;276;2024-08-22_08h56.49.616;EXNAT_3_fMRI_Psychopy2023.1.3;03.01.23;75.02153538
0;0;0;0;;;;;;;;;;;#F989A2;567.969367;22.93850994;None;None;None;333.9502504;text_01;34;1;1;1;Reading_Baseline_main_no_click;None;sind;;;;;MA01;1;no;670;1992;62;138;276;2024-08-22_08h56.49.616;EXNAT_3_fMRI_Psychopy2023.1.3;03.01.23;75.02153538
0;0;0;0;;;;;;;;;;;#2AB7EF;568.3158131;23.28495598;None;None;None;316.1139619;text_01;35;1;1;1;Reading_Baseline_main_no_click;None;sie;;;;;MA01;1;no;670;1992;62;138;276;2024-08-22_08h56.49.616;EXNAT_3_fMRI_Psychopy2023.1.3;03.01.23;75.02153538
0;0;0;0;;;;;;;;;;;#D292F3;568.6358621;23.60500503;None;None;None;368.6464292;text_01;36;1;1;1;Reading_Baseline_main_no_click;None;aktuell;;;;;MA01;1;no;670;1992;62;138;276;2024-08-22_08h56.49.616;EXNAT_3_fMRI_Psychopy2023.1.3;03.01.23;75.02153538
0;0;0;0;;;;;;;;;;;#88BA3F;569.008925;23.97806787;None;None;None;310;text_01;37;1;1;1;Reading_Baseline_main_no_click;None;in;;;;;MA01;1;no;670;1992;62;138;276;2024-08-22_08h56.49.616;EXNAT_3_fMRI_Psychopy2023.1.3;03.01.23;75.02153538
0;0;0;0;;;;;;;;;;;#88BA3F;569.3289609;24.29810381;None;None;None;359.0890871;text_01;38;1;1;1;Reading_Baseline_main_no_click;None;Massen;;;;;MA01;1;no;670;1992;62;138;276;2024-08-22_08h56.49.616;EXNAT_3_fMRI_Psychopy2023.1.3;03.01.23;75.02153538
0;0;0;0;;;;;;;;;;;#D292F3;569.702328;24.67147088;None;None;None;310;text_01;39;1;1;1;Reading_Baseline_main_no_click;None;zu;;;;;MA01;1;no;670;1992;62;138;276;2024-08-22_08h56.49.616;EXNAT_3_fMRI_Psychopy2023.1.3;03.01.23;75.02153538
0;0;0;0;;;;;;;;;;;#F989A2;570.021991;24.99113393;None;None;None;359.0890871;text_01;40;1;1;1;Reading_Baseline_main_no_click;None;sehen.;;;;;MA01;1;no;670;1992;62;138;276;2024-08-22_08h56.49.616;EXNAT_3_fMRI_Psychopy2023.1.3;03.01.23;75.02153538
0;0;0;0;;;;;;;;;;;#D292F3;570.395802;25.36494493;None;None;None;376.9253756;text_01;41;1;1;1;Reading_Baseline_main_no_click;None;Hunderte;;;;;MA01;1;no;670;1992;62;138;276;2024-08-22_08h56.49.616;EXNAT_3_fMRI_Psychopy2023.1.3;03.01.23;75.02153538
0;0;0;0;;;;;;;;;;;#2AB7EF;570.781842;25.75098491;None;None;None;316.1139619;text_01;42;1;1;1;Reading_Baseline_main_no_click;None;von;;;;;MA01;1;no;670;1992;62;138;276;2024-08-22_08h56.49.616;EXNAT_3_fMRI_Psychopy2023.1.3;03.01.23;75.02153538
0;0;0;0;;;;;;;;;;;#2AB7EF;571.1020169;26.07115984;None;None;None;376.9253756;text_01;43;1;1;1;Reading_Baseline_main_no_click;None;riesigen;;;;;MA01;1;no;670;1992;62;138;276;2024-08-22_08h56.49.616;EXNAT_3_fMRI_Psychopy2023.1.3;03.01.23;75.02153538
0;0;0;0;;;;;;;;;;;#88BA3F;571.489186;26.45832896;None;None;None;407.0268602;text_01;44;1;1;1;Reading_Baseline_main_no_click;None;Tintenfischen;;;;;MA01;1;no;670;1992;62;138;276;2024-08-22_08h56.49.616;EXNAT_3_fMRI_Psychopy2023.1.3;03.01.23;75.02153538
0;0;0;0;;;;;;;;;;;#D292F3;571.901372;26.87051487;None;None;None;384.2279238;text_01;45;1;1;1;Reading_Baseline_main_no_click;None;schwimmen;;;;;MA01;1;no;670;1992;62;138;276;2024-08-22_08h56.49.616;EXNAT_3_fMRI_Psychopy2023.1.3;03.01.23;75.02153538
0;0;0;0;;;;;;;;;;;#D292F3;572.2876019;27.25674486;None;None;None;310;text_01;46;1;1;1;Reading_Baseline_main_no_click;None;in;;;;;MA01;1;no;670;1992;62;138;276;2024-08-22_08h56.49.616;EXNAT_3_fMRI_Psychopy2023.1.3;03.01.23;75.02153538
0;0;0;0;;;;;;;;;;;#88BA3F;572.6075449;27.57668781;None;None;None;316.1139619;text_01;47;1;1;1;Reading_Baseline_main_no_click;None;den;;;;;MA01;1;no;670;1992;62;138;276;2024-08-22_08h56.49.616;EXNAT_3_fMRI_Psychopy2023.1.3;03.01.23;75.02153538
0;0;0;0;;;;;;;;;;;#F989A2;572.927953;27.89709592;None;None;None;368.6464292;text_01;48;1;1;1;Reading_Baseline_main_no_click;None;flachen;;;;;MA01;1;no;670;1992;62;138;276;2024-08-22_08h56.49.616;EXNAT_3_fMRI_Psychopy2023.1.3;03.01.23;75.02153538
0;0;0;0;;;;;;;;;;;#88BA3F;573.3015361;28.270679;None;None;None;384.2279238;text_01;49;1;1;1;Reading_Baseline_main_no_click;None;Gewässern;;;;;MA01;1;no;670;1992;62;138;276;2024-08-22_08h56.49.616;EXNAT_3_fMRI_Psychopy2023.1.3;03.01.23;75.02153538
0;0;0;0;;;;;;;;;;;#D292F3;573.7004731;28.66961598;None;None;None;316.1139619;text_01;50;1;1;1;Reading_Baseline_main_no_click;None;und;;;;;MA01;1;no;670;1992;62;138;276;2024-08-22_08h56.49.616;EXNAT_3_fMRI_Psychopy2023.1.3;03.01.23;75.02153538
0;0;0;0;;;;;;;;;;;#F989A2;574.020561;28.98970389;None;None;None;368.6464292;text_01;51;1;1;1;Reading_Baseline_main_no_click;None;fressen;;;;;MA01;1;no;670;1992;62;138;276;2024-08-22_08h56.49.616;EXNAT_3_fMRI_Psychopy2023.1.3;03.01.23;75.02153538
0;0;0;0;;;;;;;;;;;#88BA3F;574.393594;29.36273694;None;None;None;333.9502504;text_01;52;1;1;1;Reading_Baseline_main_no_click;None;dort;;;;;MA01;1;no;670;1992;62;138;276;2024-08-22_08h56.49.616;EXNAT_3_fMRI_Psychopy2023.1.3;03.01.23;75.02153538
0;0;0;0;;;;;;;;;;;#2AB7EF;574.7401321;29.70927501;None;None;None;316.1139619;text_01;53;1;1;1;Reading_Baseline_main_no_click;None;die;;;;;MA01;1;no;670;1992;62;138;276;2024-08-22_08h56.49.616;EXNAT_3_fMRI_Psychopy2023.1.3;03.01.23;75.02153538
0;0;0;0;;;;;;;;;;;#88BA3F;575.0601349;30.0292778;None;None;None;368.6464292;text_01;54;1;1;1;Reading_Baseline_main_no_click;None;Fische.;;;;;MA01;1;no;670;1992;62;138;276;2024-08-22_08h56.49.616;EXNAT_3_fMRI_Psychopy2023.1.3;03.01.23;75.02153538
0;0;0;0;;;;;;;;;;;#F989A2;575.4340429;30.40318584;None;None;None;407.0268602;text_01;55;1;1;1;Reading_Baseline_main_no_click;None;Normalerweise;;;;;MA01;1;no;670;1992;62;138;276;2024-08-22_08h56.49.616;EXNAT_3_fMRI_Psychopy2023.1.3;03.01.23;75.02153538
0;0;0;0;;;;;;;;;;;#D292F3;575.846658;30.81580091;None;None;None;333.9502504;text_01;56;1;1;1;Reading_Baseline_main_no_click;None;sind;;;;;MA01;1;no;670;1992;62;138;276;2024-08-22_08h56.49.616;EXNAT_3_fMRI_Psychopy2023.1.3;03.01.23;75.02153538
0;0;0;0;;;;;;;;;;;#F989A2;576.192889;31.16203189;None;None;None;316.1139619;text_01;57;1;1;1;Reading_Baseline_main_no_click;None;die;;;;;MA01;1;no;670;1992;62;138;276;2024-08-22_08h56.49.616;EXNAT_3_fMRI_Psychopy2023.1.3;03.01.23;75.02153538
0;0;0;0;;;;;;;;;;;#88BA3F;576.5129881;31.482131;None;None;None;359.0890871;text_01;58;1;1;1;Reading_Baseline_main_no_click;None;großen;;;;;MA01;1;no;670;1992;62;138;276;2024-08-22_08h56.49.616;EXNAT_3_fMRI_Psychopy2023.1.3;03.01.23;75.02153538
0;0;0;0;;;;;;;;;;;#2AB7EF;576.8862529;31.85539579;None;None;None;368.6464292;text_01;59;1;1;1;Reading_Baseline_main_no_click;None;Kalmare;;;;;MA01;1;no;670;1992;62;138;276;2024-08-22_08h56.49.616;EXNAT_3_fMRI_Psychopy2023.1.3;03.01.23;75.02153538
0;0;0;0;;;;;;;;;;;#F989A2;577.2592149;32.22835779;None;None;None;316.1139619;text_01;60;1;1;1;Reading_Baseline_main_no_click;None;nur;;;;;MA01;1;no;670;1992;62;138;276;2024-08-22_08h56.49.616;EXNAT_3_fMRI_Psychopy2023.1.3;03.01.23;75.02153538
0;0;0;0;;;;;;;;;;;#88BA3F;577.579345;32.5484879;None;None;None;359.0890871;text_01;61;1;1;1;Reading_Baseline_main_no_click;None;schwer;;;;;MA01;1;no;670;1992;62;138;276;2024-08-22_08h56.49.616;EXNAT_3_fMRI_Psychopy2023.1.3;03.01.23;75.02153538
0;0;0;0;;;;;;;;;;;#F989A2;577.9522941;32.92143703;None;None;None;310;text_01;62;1;1;1;Reading_Baseline_main_no_click;None;zu;;;;;MA01;1;no;670;1992;62;138;276;2024-08-22_08h56.49.616;EXNAT_3_fMRI_Psychopy2023.1.3;03.01.23;75.02153538
0;0;0;0;;;;;;;;;;;#88BA3F;578.2726779;33.24182081;None;None;None;396.6695069;text_01;63;1;1;1;Reading_Baseline_main_no_click;None;beobachten.;;;;;MA01;1;no;670;1992;62;138;276;2024-08-22_08h56.49.616;EXNAT_3_fMRI_Psychopy2023.1.3;03.01.23;75.02153538
0;0;0;0;;;;;;;;;;;#88BA3F;578.67203;33.64117289;None;None;None;316.1139619;text_01;64;1;1;1;Reading_Baseline_main_no_click;None;Sie;;;;;MA01;1;no;670;1992;62;138;276;2024-08-22_08h56.49.616;EXNAT_3_fMRI_Psychopy2023.1.3;03.01.23;75.02153538
0;0;0;0;;;;;;;;;;;#2AB7EF;578.9922271;33.96136999;None;None;None;347.7851506;text_01;65;1;1;1;Reading_Baseline_main_no_click;None;leben;;;;;MA01;1;no;670;1992;62;138;276;2024-08-22_08h56.49.616;EXNAT_3_fMRI_Psychopy2023.1.3;03.01.23;75.02153538
0;0;0;0;;;;;;;;;;;#F989A2;579.3520701;34.32121301;None;None;None;390.7602758;text_01;66;1;1;1;Reading_Baseline_main_no_click;None;eigentlich;;;;;MA01;1;no;670;1992;62;138;276;2024-08-22_08h56.49.616;EXNAT_3_fMRI_Psychopy2023.1.3;03.01.23;75.02153538
0;0;0;0;;;;;;;;;;;#2AB7EF;579.7517209;34.72086382;None;None;None;310;text_01;67;1;1;1;Reading_Baseline_main_no_click;None;im;;;;;MA01;1;no;670;1992;62;138;276;2024-08-22_08h56.49.616;EXNAT_3_fMRI_Psychopy2023.1.3;03.01.23;75.02153538
0;0;0;0;;;;;;;;;;;#D292F3;580.0717249;35.04086781;None;None;None;368.6464292;text_01;68;1;1;1;Reading_Baseline_main_no_click;None;offenen;;;;;MA01;1;no;670;1992;62;138;276;2024-08-22_08h56.49.616;EXNAT_3_fMRI_Psychopy2023.1.3;03.01.23;75.02153538
0;0;0;0;;;;;;;;;;;#F989A2;580.4448569;35.4139998;None;None;None;347.7851506;text_01;69;1;1;1;Reading_Baseline_main_no_click;None;Meer.;;;;;MA01;1;no;670;1992;62;138;276;2024-08-22_08h56.49.616;EXNAT_3_fMRI_Psychopy2023.1.3;03.01.23;75.02153538
0;0;0;0;;;;;;;;;;;#2AB7EF;580.8048451;35.77398801;None;None;None;316.1139619;text_01;70;1;1;1;Reading_Baseline_main_no_click;None;Nur;;;;;MA01;1;no;670;1992;62;138;276;2024-08-22_08h56.49.616;EXNAT_3_fMRI_Psychopy2023.1.3;03.01.23;75.02153538
0;0;0;0;;;;;;;;;;;#F989A2;581.1246929;36.09383583;None;None;None;359.0890871;text_01;71;1;1;1;Reading_Baseline_main_no_click;None;nachts;;;;;MA01;1;no;670;1992;62;138;276;2024-08-22_08h56.49.616;EXNAT_3_fMRI_Psychopy2023.1.3;03.01.23;75.02153538
0;0;0;0;;;;;;;;;;;#D292F3;581.4978809;36.46702385;None;None;None;359.0890871;text_01;72;1;1;1;Reading_Baseline_main_no_click;None;kommen;;;;;MA01;1;no;670;1992;62;138;276;2024-08-22_08h56.49.616;EXNAT_3_fMRI_Psychopy2023.1.3;03.01.23;75.02153538
0;0;0;0;;;;;;;;;;;#88BA3F;581.8709209;36.84006381;None;None;None;316.1139619;text_01;73;1;1;1;Reading_Baseline_main_no_click;None;sie;;;;;MA01;1;no;670;1992;62;138;276;2024-08-22_08h56.49.616;EXNAT_3_fMRI_Psychopy2023.1.3;03.01.23;75.02153538
0;0;0;0;;;;;;;;;;;#F989A2;582.190979;37.16012192;None;None;None;310;text_01;74;1;1;1;Reading_Baseline_main_no_click;None;an;;;;;MA01;1;no;670;1992;62;138;276;2024-08-22_08h56.49.616;EXNAT_3_fMRI_Psychopy2023.1.3;03.01.23;75.02153538
0;0;0;0;;;;;;;;;;;#2AB7EF;582.510679;37.47982192;None;None;None;316.1139619;text_01;75;1;1;1;Reading_Baseline_main_no_click;None;die;;;;;MA01;1;no;670;1992;62;138;276;2024-08-22_08h56.49.616;EXNAT_3_fMRI_Psychopy2023.1.3;03.01.23;75.02153538
0;0;0;0;;;;;;;;;;;#D292F3;582.8314099;37.80055285;None;None;None;396.6695069;text_01;76;1;1;1;Reading_Baseline_main_no_click;None;Oberfläche,;;;;;MA01;1;no;670;1992;62;138;276;2024-08-22_08h56.49.616;EXNAT_3_fMRI_Psychopy2023.1.3;03.01.23;75.02153538
0;0;0;0;;;;;;;;;;;#2AB7EF;583.2303951;38.19953799;None;None;None;310;text_01;77;1;1;1;Reading_Baseline_main_no_click;None;um;;;;;MA01;1;no;670;1992;62;138;276;2024-08-22_08h56.49.616;EXNAT_3_fMRI_Psychopy2023.1.3;03.01.23;75.02153538
0;0;0;0;;;;;;;;;;;#D292F3;583.5504999;38.51964283;None;None;None;359.0890871;text_01;78;1;1;1;Reading_Baseline_main_no_click;None;kleine;;;;;MA01;1;no;670;1992;62;138;276;2024-08-22_08h56.49.616;EXNAT_3_fMRI_Psychopy2023.1.3;03.01.23;75.02153538
0;0;0;0;;;;;;;;;;;#F989A2;583.923727;38.89286995;None;None;None;359.0890871;text_01;79;1;1;1;Reading_Baseline_main_no_click;None;Fische;;;;;MA01;1;no;670;1992;62;138;276;2024-08-22_08h56.49.616;EXNAT_3_fMRI_Psychopy2023.1.3;03.01.23;75.02153538
0;0;0;0;;;;;;;;;;;#2AB7EF;584.296788;39.26593089;None;None;None;310;text_01;80;1;1;1;Reading_Baseline_main_no_click;None;zu;;;;;MA01;1;no;670;1992;62;138;276;2024-08-22_08h56.49.616;EXNAT_3_fMRI_Psychopy2023.1.3;03.01.23;75.02153538
0;0;0;0;;;;;;;;;;;#F989A2;584.6173241;39.58646703;None;None;None;359.0890871;text_01;81;1;1;1;Reading_Baseline_main_no_click;None;jagen.;;;;;MA01;1;no;670;1992;62;138;276;2024-08-22_08h56.49.616;EXNAT_3_fMRI_Psychopy2023.1.3;03.01.23;75.02153538
0;0;0;0;;;;;;;;;;;#88BA3F;584.9900119;39.95915484;None;None;None;333.9502504;text_01;82;1;1;1;Reading_Baseline_main_no_click;None;Seit;;;;;MA01;1;no;670;1992;62;138;276;2024-08-22_08h56.49.616;EXNAT_3_fMRI_Psychopy2023.1.3;03.01.23;75.02153538
0;0;0;0;;;;;;;;;;;#88BA3F;585.3364191;40.30556202;None;None;None;333.9502504;text_01;83;1;1;1;Reading_Baseline_main_no_click;None;zwei;;;;;MA01;1;no;670;1992;62;138;276;2024-08-22_08h56.49.616;EXNAT_3_fMRI_Psychopy2023.1.3;03.01.23;75.02153538
0;0;0;0;;;;;;;;;;;#D292F3;585.6836591;40.65280199;None;None;None;359.0890871;text_01;84;1;1;1;Reading_Baseline_main_no_click;None;Wochen;;;;;MA01;1;no;670;1992;62;138;276;2024-08-22_08h56.49.616;EXNAT_3_fMRI_Psychopy2023.1.3;03.01.23;75.02153538
0;0;0;0;;;;;;;;;;;#88BA3F;586.0562551;41.02539802;None;None;None;333.9502504;text_01;85;1;1;1;Reading_Baseline_main_no_click;None;aber;;;;;MA01;1;no;670;1992;62;138;276;2024-08-22_08h56.49.616;EXNAT_3_fMRI_Psychopy2023.1.3;03.01.23;75.02153538
0;0;0;0;;;;;;;;;;;#F989A2;586.4027309;41.37187386;None;None;None;333.9502504;text_01;86;1;1;1;Reading_Baseline_main_no_click;None;sind;;;;;MA01;1;no;670;1992;62;138;276;2024-08-22_08h56.49.616;EXNAT_3_fMRI_Psychopy2023.1.3;03.01.23;75.02153538
0;0;0;0;;;;;;;;;;;#F989A2;586.7491879;41.71833086;None;None;None;316.1139619;text_01;87;1;1;1;Reading_Baseline_main_no_click;None;sie;;;;;MA01;1;no;670;1992;62;138;276;2024-08-22_08h56.49.616;EXNAT_3_fMRI_Psychopy2023.1.3;03.01.23;75.02153538
0;0;0;0;;;;;;;;;;;#88BA3F;587.069087;42.03822994;None;None;None;333.9502504;text_01;88;1;1;1;Reading_Baseline_main_no_click;None;auch;;;;;MA01;1;no;670;1992;62;138;276;2024-08-22_08h56.49.616;EXNAT_3_fMRI_Psychopy2023.1.3;03.01.23;75.02153538
0;0;0;0;;;;;;;;;;;#2AB7EF;587.4155941;42.38473701;None;None;None;316.1139619;text_01;89;1;1;1;Reading_Baseline_main_no_click;None;bei;;;;;MA01;1;no;670;1992;62;138;276;2024-08-22_08h56.49.616;EXNAT_3_fMRI_Psychopy2023.1.3;03.01.23;75.02153538
0;0;0;0;;;;;;;;;;;#F989A2;587.735729;42.70487189;None;None;None;390.7602758;text_01;90;1;1;1;Reading_Baseline_main_no_click;None;Tageslicht;;;;;MA01;1;no;670;1992;62;138;276;2024-08-22_08h56.49.616;EXNAT_3_fMRI_Psychopy2023.1.3;03.01.23;75.02153538
0;0;0;0;;;;;;;;;;;#88BA3F;588.1355851;43.10472798;None;None;None;316.1139619;text_01;91;1;1;1;Reading_Baseline_main_no_click;None;vor;;;;;MA01;1;no;670;1992;62;138;276;2024-08-22_08h56.49.616;EXNAT_3_fMRI_Psychopy2023.1.3;03.01.23;75.02153538
0;0;0;0;;;;;;;;;;;#D292F3;588.455297;43.42443991;None;None;None;316.1139619;text_01;92;1;1;1;Reading_Baseline_main_no_click;None;der;;;;;MA01;1;no;670;1992;62;138;276;2024-08-22_08h56.49.616;EXNAT_3_fMRI_Psychopy2023.1.3;03.01.23;75.02153538
0;0;0;0;;;;;;;;;;;#D292F3;588.7757471;43.74488997;None;None;None;347.7851506;text_01;93;1;1;1;Reading_Baseline_main_no_click;None;Küste;;;;;MA01;1;no;670;1992;62;138;276;2024-08-22_08h56.49.616;EXNAT_3_fMRI_Psychopy2023.1.3;03.01.23;75.02153538
0;0;0;0;;;;;;;;;;;#F989A2;589.135005;44.10414791;None;None;None;310;text_01;94;1;1;1;Reading_Baseline_main_no_click;None;zu;;;;;MA01;1;no;670;1992;62;138;276;2024-08-22_08h56.49.616;EXNAT_3_fMRI_Psychopy2023.1.3;03.01.23;75.02153538
0;0;0;0;;;;;;;;;;;#2AB7EF;589.4551239;44.42426682;None;None;None;359.0890871;text_01;95;1;1;1;Reading_Baseline_main_no_click;None;sehen.;;;;;MA01;1;no;670;1992;62;138;276;2024-08-22_08h56.49.616;EXNAT_3_fMRI_Psychopy2023.1.3;03.01.23;75.02153538
0;0;0;0;;;;;;;;;;;#88BA3F;589.828872;44.79801488;None;None;None;376.9253756;text_01;96;1;1;1;Reading_Baseline_main_no_click;None;Zunächst;;;;;MA01;1;no;670;1992;62;138;276;2024-08-22_08h56.49.616;EXNAT_3_fMRI_Psychopy2023.1.3;03.01.23;75.02153538
0;0;0;0;;;;;;;;;;;#D292F3;590.2147901;45.18393302;None;None;None;359.0890871;text_01;97;1;1;1;Reading_Baseline_main_no_click;None;wurden;;;;;MA01;1;no;670;1992;62;138;276;2024-08-22_08h56.49.616;EXNAT_3_fMRI_Psychopy2023.1.3;03.01.23;75.02153538
0;0;0;0;;;;;;;;;;;#2AB7EF;590.5879381;45.55708098;None;None;None;333.9502504;text_01;98;1;1;1;Reading_Baseline_main_no_click;None;mehr;;;;;MA01;1;no;670;1992;62;138;276;2024-08-22_08h56.49.616;EXNAT_3_fMRI_Psychopy2023.1.3;03.01.23;75.02153538
0;0;0;0;;;;;;;;;;;#D292F3;590.934607;45.90374994;None;None;None;316.1139619;text_01;99;1;1;1;Reading_Baseline_main_no_click;None;als;;;;;MA01;1;no;670;1992;62;138;276;2024-08-22_08h56.49.616;EXNAT_3_fMRI_Psychopy2023.1.3;03.01.23;75.02153538
0;0;0;0;;;;;;;;;;;#F989A2;591.2548299;46.2239728;None;None;None;316.1139619;text_01;100;1;1;1;Reading_Baseline_main_no_click;None;200;;;;;MA01;1;no;670;1992;62;138;276;2024-08-22_08h56.49.616;EXNAT_3_fMRI_Psychopy2023.1.3;03.01.23;75.02153538
0;0;0;0;;;;;;;;;;;#2AB7EF;591.5743771;46.54351997;None;None;None;368.6464292;text_01;101;1;1;1;Reading_Baseline_main_no_click;None;Kalmare;;;;;MA01;1;no;670;1992;62;138;276;2024-08-22_08h56.49.616;EXNAT_3_fMRI_Psychopy2023.1.3;03.01.23;75.02153538
0;0;0;0;;;;;;;;;;;#F989A2;591.947484;46.91662693;None;None;None;316.1139619;text_01;102;1;1;1;Reading_Baseline_main_no_click;None;vor;;;;;MA01;1;no;670;1992;62;138;276;2024-08-22_08h56.49.616;EXNAT_3_fMRI_Psychopy2023.1.3;03.01.23;75.02153538
0;0;0;0;;;;;;;;;;;#88BA3F;592.2674351;47.23657799;None;None;None;347.7851506;text_01;103;1;1;1;Reading_Baseline_main_no_click;None;einer;;;;;MA01;1;no;670;1992;62;138;276;2024-08-22_08h56.49.616;EXNAT_3_fMRI_Psychopy2023.1.3;03.01.23;75.02153538
0;0;0;0;;;;;;;;;;;#F989A2;592.6277349;47.59687781;None;None;None;347.7851506;text_01;104;1;1;1;Reading_Baseline_main_no_click;None;Insel;;;;;MA01;1;no;670;1992;62;138;276;2024-08-22_08h56.49.616;EXNAT_3_fMRI_Psychopy2023.1.3;03.01.23;75.02153538
0;0;0;0;;;;;;;;;;;#2AB7EF;592.9870059;47.95614886;None;None;None;316.1139619;text_01;105;1;1;1;Reading_Baseline_main_no_click;None;vor;;;;;MA01;1;no;670;1992;62;138;276;2024-08-22_08h56.49.616;EXNAT_3_fMRI_Psychopy2023.1.3;03.01.23;75.02153538
0;0;0;0;;;;;;;;;;;#88BA3F;593.307215;48.27635789;None;None;None;347.7851506;text_01;106;1;1;1;Reading_Baseline_main_no_click;None;Chile;;;;;MA01;1;no;670;1992;62;138;276;2024-08-22_08h56.49.616;EXNAT_3_fMRI_Psychopy2023.1.3;03.01.23;75.02153538
0;0;0;0;;;;;;;;;;;#2AB7EF;593.667213;48.63635588;None;None;None;390.7602758;text_01;107;1;1;1;Reading_Baseline_main_no_click;None;gesichtet.;;;;;MA01;1;no;670;1992;62;138;276;2024-08-22_08h56.49.616;EXNAT_3_fMRI_Psychopy2023.1.3;03.01.23;75.02153538
0;0;0;0;;;;;;;;;;;#D292F3;594.0668621;49.03600502;None;None;None;359.0890871;text_01;108;1;1;1;Reading_Baseline_main_no_click;None;Später;;;;;MA01;1;no;670;1992;62;138;276;2024-08-22_08h56.49.616;EXNAT_3_fMRI_Psychopy2023.1.3;03.01.23;75.02153538
0;0;0;0;;;;;;;;;;;#F989A2;594.440032;49.40917492;None;None;None;359.0890871;text_01;109;1;1;1;Reading_Baseline_main_no_click;None;wurden;;;;;MA01;1;no;670;1992;62;138;276;2024-08-22_08h56.49.616;EXNAT_3_fMRI_Psychopy2023.1.3;03.01.23;75.02153538
0;0;0;0;;;;;;;;;;;#D292F3;594.8131599;49.78230286;None;None;None;333.9502504;text_01;110;1;1;1;Reading_Baseline_main_no_click;None;dann;;;;;MA01;1;no;670;1992;62;138;276;2024-08-22_08h56.49.616;EXNAT_3_fMRI_Psychopy2023.1.3;03.01.23;75.02153538
0;0;0;0;;;;;;;;;;;#88BA3F;595.159759;50.12890196;None;None;None;368.6464292;text_01;111;1;1;1;Reading_Baseline_main_no_click;None;weitere;;;;;MA01;1;no;670;1992;62;138;276;2024-08-22_08h56.49.616;EXNAT_3_fMRI_Psychopy2023.1.3;03.01.23;75.02153538
0;0;0;0;;;;;;;;;;;#2AB7EF;595.533015;50.50215793;None;None;None;368.6464292;text_01;112;1;1;1;Reading_Baseline_main_no_click;None;Kalmare;;;;;MA01;1;no;670;1992;62;138;276;2024-08-22_08h56.49.616;EXNAT_3_fMRI_Psychopy2023.1.3;03.01.23;75.02153538
0;0;0;0;;;;;;;;;;;#F989A2;595.9059629;50.87510586;None;None;None;310;text_01;113;1;1;1;Reading_Baseline_main_no_click;None;an;;;;;MA01;1;no;670;1992;62;138;276;2024-08-22_08h56.49.616;EXNAT_3_fMRI_Psychopy2023.1.3;03.01.23;75.02153538
0;0;0;0;;;;;;;;;;;#D292F3;596.226042;51.19518495;None;None;None;368.6464292;text_01;114;1;1;1;Reading_Baseline_main_no_click;None;anderen;;;;;MA01;1;no;670;1992;62;138;276;2024-08-22_08h56.49.616;EXNAT_3_fMRI_Psychopy2023.1.3;03.01.23;75.02153538
0;0;0;0;;;;;;;;;;;#F989A2;596.5997751;51.56891799;None;None;None;347.7851506;text_01;115;1;1;1;Reading_Baseline_main_no_click;None;Orten;;;;;MA01;1;no;670;1992;62;138;276;2024-08-22_08h56.49.616;EXNAT_3_fMRI_Psychopy2023.1.3;03.01.23;75.02153538
0;0;0;0;;;;;;;;;;;#D292F3;596.9596541;51.92879701;None;None;None;368.6464292;text_01;116;1;1;1;Reading_Baseline_main_no_click;None;entlang;;;;;MA01;1;no;670;1992;62;138;276;2024-08-22_08h56.49.616;EXNAT_3_fMRI_Psychopy2023.1.3;03.01.23;75.02153538
0;0;0;0;;;;;;;;;;;#88BA3F;597.3324881;52.30163097;None;None;None;316.1139619;text_01;117;1;1;1;Reading_Baseline_main_no_click;None;der;;;;;MA01;1;no;670;1992;62;138;276;2024-08-22_08h56.49.616;EXNAT_3_fMRI_Psychopy2023.1.3;03.01.23;75.02153538
0;0;0;0;;;;;;;;;;;#2AB7EF;597.652859;52.62200189;None;None;None;347.7851506;text_01;118;1;1;1;Reading_Baseline_main_no_click;None;Küste;;;;;MA01;1;no;670;1992;62;138;276;2024-08-22_08h56.49.616;EXNAT_3_fMRI_Psychopy2023.1.3;03.01.23;75.02153538
0;0;0;0;;;;;;;;;;;#88BA3F;598.0126219;52.98176479;None;None;None;359.0890871;text_01;119;1;1;1;Reading_Baseline_main_no_click;None;Chiles;;;;;MA01;1;no;670;1992;62;138;276;2024-08-22_08h56.49.616;EXNAT_3_fMRI_Psychopy2023.1.3;03.01.23;75.02153538
0;0;0;0;;;;;;;;;;;#F989A2;598.38571;53.35485291;None;None;None;396.6695069;text_01;120;1;1;1;Reading_Baseline_main_no_click;None;beobachtet.;;;;;MA01;1;no;670;1992;62;138;276;2024-08-22_08h56.49.616;EXNAT_3_fMRI_Psychopy2023.1.3;03.01.23;75.02153538
0;0;0;0;;;;;;;;;;;#F989A2;598.785486;53.7546289;None;None;None;316.1139619;text_01;121;1;1;1;Reading_Baseline_main_no_click;None;Vor;;;;;MA01;1;no;670;1992;62;138;276;2024-08-22_08h56.49.616;EXNAT_3_fMRI_Psychopy2023.1.3;03.01.23;75.02153538
0;0;0;0;;;;;;;;;;;#D292F3;599.106709;54.07585192;None;None;None;347.7851506;text_01;122;1;1;1;Reading_Baseline_main_no_click;None;allem;;;;;MA01;1;no;670;1992;62;138;276;2024-08-22_08h56.49.616;EXNAT_3_fMRI_Psychopy2023.1.3;03.01.23;75.02153538
0;0;0;0;;;;;;;;;;;#2AB7EF;599.4668961;54.43603897;None;None;None;316.1139619;text_01;123;1;1;1;Reading_Baseline_main_no_click;None;für;;;;;MA01;1;no;670;1992;62;138;276;2024-08-22_08h56.49.616;EXNAT_3_fMRI_Psychopy2023.1.3;03.01.23;75.02153538
0;0;0;0;;;;;;;;;;;#88BA3F;599.7863231;54.75546598;None;None;None;316.1139619;text_01;124;1;1;1;Reading_Baseline_main_no_click;None;die;;;;;MA01;1;no;670;1992;62;138;276;2024-08-22_08h56.49.616;EXNAT_3_fMRI_Psychopy2023.1.3;03.01.23;75.02153538
0;0;0;0;;;;;;;;;;;#F989A2;600.10639;55.07553291;None;None;None;368.6464292;text_01;125;1;1;1;Reading_Baseline_main_no_click;None;Fischer;;;;;MA01;1;no;670;1992;62;138;276;2024-08-22_08h56.49.616;EXNAT_3_fMRI_Psychopy2023.1.3;03.01.23;75.02153538
0;0;0;0;;;;;;;;;;;#88BA3F;600.4793921;55.44853497;None;None;None;316.1139619;text_01;126;1;1;1;Reading_Baseline_main_no_click;None;ist;;;;;MA01;1;no;670;1992;62;138;276;2024-08-22_08h56.49.616;EXNAT_3_fMRI_Psychopy2023.1.3;03.01.23;75.02153538
0;0;0;0;;;;;;;;;;;#2AB7EF;600.7993491;55.76849198;None;None;None;316.1139619;text_01;127;1;1;1;Reading_Baseline_main_no_click;None;das;;;;;MA01;1;no;670;1992;62;138;276;2024-08-22_08h56.49.616;EXNAT_3_fMRI_Psychopy2023.1.3;03.01.23;75.02153538
0;0;0;0;;;;;;;;;;;#D292F3;601.1194279;56.08857083;None;None;None;390.7602758;text_01;128;1;1;1;Reading_Baseline_main_no_click;None;ärgerlich.;;;;;MA01;1;no;670;1992;62;138;276;2024-08-22_08h56.49.616;EXNAT_3_fMRI_Psychopy2023.1.3;03.01.23;75.02153538
0;0;0;0;;;;;;;;;;;#F989A2;601.519685;56.48882794;None;None;None;316.1139619;text_01;129;1;1;1;Reading_Baseline_main_no_click;None;Die;;;;;MA01;1;no;670;1992;62;138;276;2024-08-22_08h56.49.616;EXNAT_3_fMRI_Psychopy2023.1.3;03.01.23;75.02153538
0;0;0;0;;;;;;;;;;;#2AB7EF;601.83919;56.80833292;None;None;None;368.6464292;text_01;130;1;1;1;Reading_Baseline_main_no_click;None;Kalmare;;;;;MA01;1;no;670;1992;62;138;276;2024-08-22_08h56.49.616;EXNAT_3_fMRI_Psychopy2023.1.3;03.01.23;75.02153538
0;0;0;0;;;;;;;;;;;#D292F3;602.2124009;57.18154383;None;None;None;368.6464292;text_01;131;1;1;1;Reading_Baseline_main_no_click;None;fressen;;;;;MA01;1;no;670;1992;62;138;276;2024-08-22_08h56.49.616;EXNAT_3_fMRI_Psychopy2023.1.3;03.01.23;75.02153538
0;0;0;0;;;;;;;;;;;#88BA3F;602.5860879;57.55523086;None;None;None;368.6464292;text_01;132;1;1;1;Reading_Baseline_main_no_click;None;Hechte,;;;;;MA01;1;no;670;1992;62;138;276;2024-08-22_08h56.49.616;EXNAT_3_fMRI_Psychopy2023.1.3;03.01.23;75.02153538
0;0;0;0;;;;;;;;;;;#D292F3;602.958797;57.92793989;None;None;None;376.9253756;text_01;133;1;1;1;Reading_Baseline_main_no_click;None;Sardinen;;;;;MA01;1;no;670;1992;62;138;276;2024-08-22_08h56.49.616;EXNAT_3_fMRI_Psychopy2023.1.3;03.01.23;75.02153538
0;0;0;0;;;;;;;;;;;#2AB7EF;603.345104;58.31424689;None;None;None;316.1139619;text_01;134;1;1;1;Reading_Baseline_main_no_click;None;und;;;;;MA01;1;no;670;1992;62;138;276;2024-08-22_08h56.49.616;EXNAT_3_fMRI_Psychopy2023.1.3;03.01.23;75.02153538
0;0;0;0;;;;;;;;;;;#D292F3;603.6651959;58.63433886;None;None;None;390.7602758;text_01;135;1;1;1;Reading_Baseline_main_no_click;None;Sardellen.;;;;;MA01;1;no;670;1992;62;138;276;2024-08-22_08h56.49.616;EXNAT_3_fMRI_Psychopy2023.1.3;03.01.23;75.02153538
0;0;0;0;;;;;;;;;;;#2AB7EF;604.065511;59.0346539;None;None;None;316.1139619;text_01;136;1;1;1;Reading_Baseline_main_no_click;None;Und;;;;;MA01;1;no;670;1992;62;138;276;2024-08-22_08h56.49.616;EXNAT_3_fMRI_Psychopy2023.1.3;03.01.23;75.02153538
0;0;0;0;;;;;;;;;;;#2AB7EF;604.3848119;59.35395479;None;None;None;316.1139619;text_01;137;1;1;1;Reading_Baseline_main_no_click;None;sie;;;;;MA01;1;no;670;1992;62;138;276;2024-08-22_08h56.49.616;EXNAT_3_fMRI_Psychopy2023.1.3;03.01.23;75.02153538
0;0;0;0;;;;;;;;;;;#F989A2;604.7051721;59.67431498;None;None;None;347.7851506;text_01;138;1;1;1;Reading_Baseline_main_no_click;None;haben;;;;;MA01;1;no;670;1992;62;138;276;2024-08-22_08h56.49.616;EXNAT_3_fMRI_Psychopy2023.1.3;03.01.23;75.02153538
0;0;0;0;;;;;;;;;;;#88BA3F;605.0646369;60.03377986;None;None;None;359.0890871;text_01;139;1;1;1;Reading_Baseline_main_no_click;None;großen;;;;;MA01;1;no;670;1992;62;138;276;2024-08-22_08h56.49.616;EXNAT_3_fMRI_Psychopy2023.1.3;03.01.23;75.02153538
0;0;0;0;;;;;;;;;;;#88BA3F;605.4388239;60.40796685;None;None;None;376.9253756;text_01;140;1;1;1;Reading_Baseline_main_no_click;None;Hunger -;;;;;MA01;1;no;670;1992;62;138;276;2024-08-22_08h56.49.616;EXNAT_3_fMRI_Psychopy2023.1.3;03.01.23;75.02153538
0;0;0;0;;;;;;;;;;;#88BA3F;605.824528;60.79367089;None;None;None;384.2279238;text_01;141;1;1;1;Reading_Baseline_main_no_click;None;schlechte;;;;;MA01;1;no;670;1992;62;138;276;2024-08-22_08h56.49.616;EXNAT_3_fMRI_Psychopy2023.1.3;03.01.23;75.02153538
0;0;0;0;;;;;;;;;;;#F989A2;606.2109051;61.18004799;None;None;None;359.0890871;text_01;142;1;1;1;Reading_Baseline_main_no_click;None;Karten;;;;;MA01;1;no;670;1992;62;138;276;2024-08-22_08h56.49.616;EXNAT_3_fMRI_Psychopy2023.1.3;03.01.23;75.02153538
0;0;0;0;;;;;;;;;;;#F989A2;606.5841839;61.55332685;None;None;None;316.1139619;text_01;143;1;1;1;Reading_Baseline_main_no_click;None;für;;;;;MA01;1;no;670;1992;62;138;276;2024-08-22_08h56.49.616;EXNAT_3_fMRI_Psychopy2023.1.3;03.01.23;75.02153538
0;0;0;0;;;;;;;;;;;#D292F3;606.903851;61.87299395;None;None;None;316.1139619;text_01;144;1;1;1;Reading_Baseline_main_no_click;None;die;;;;;MA01;1;no;670;1992;62;138;276;2024-08-22_08h56.49.616;EXNAT_3_fMRI_Psychopy2023.1.3;03.01.23;75.02153538
0;0;0;0;;;;;;;;;;;#88BA3F;607.2239511;62.19309402;None;None;None;384.2279238;text_01;145;1;1;1;Reading_Baseline_main_no_click;None;kleineren;;;;;MA01;1;no;670;1992;62;138;276;2024-08-22_08h56.49.616;EXNAT_3_fMRI_Psychopy2023.1.3;03.01.23;75.02153538
0;0;0;0;;;;;;;;;;;#F989A2;607.610471;62.57961392;None;None;None;368.6464292;text_01;146;1;1;1;Reading_Baseline_main_no_click;None;Fische.;;;;;MA01;1;no;670;1992;62;138;276;2024-08-22_08h56.49.616;EXNAT_3_fMRI_Psychopy2023.1.3;03.01.23;75.02153538
0;0;0;0;;;;;;;;;;;#2AB7EF;607.983732;62.9528749;None;None;None;316.1139619;text_01;147;1;1;1;Reading_Baseline_main_no_click;None;Die;;;;;MA01;1;no;670;1992;62;138;276;2024-08-22_08h56.49.616;EXNAT_3_fMRI_Psychopy2023.1.3;03.01.23;75.02153538
0;0;0;0;;;;;;;;;;;#D292F3;608.3037961;63.27293897;None;None;None;368.6464292;text_01;148;1;1;1;Reading_Baseline_main_no_click;None;Kalmare;;;;;MA01;1;no;670;1992;62;138;276;2024-08-22_08h56.49.616;EXNAT_3_fMRI_Psychopy2023.1.3;03.01.23;75.02153538
0;0;0;0;;;;;;;;;;;#88BA3F;608.6766689;63.6458118;None;None;None;359.0890871;text_01;149;1;1;1;Reading_Baseline_main_no_click;None;selbst;;;;;MA01;1;no;670;1992;62;138;276;2024-08-22_08h56.49.616;EXNAT_3_fMRI_Psychopy2023.1.3;03.01.23;75.02153538
0;0;0;0;;;;;;;;;;;#2AB7EF;609.049896;64.01903892;None;None;None;347.7851506;text_01;150;1;1;1;Reading_Baseline_main_no_click;None;haben;;;;;MA01;1;no;670;1992;62;138;276;2024-08-22_08h56.49.616;EXNAT_3_fMRI_Psychopy2023.1.3;03.01.23;75.02153538
0;0;0;0;;;;;;;;;;;#F989A2;609.409837;64.37897992;None;None;None;376.9253756;text_01;151;1;1;1;Reading_Baseline_main_no_click;None;hingegen;;;;;MA01;1;no;670;1992;62;138;276;2024-08-22_08h56.49.616;EXNAT_3_fMRI_Psychopy2023.1.3;03.01.23;75.02153538
0;0;0;0;;;;;;;;;;;#D292F3;609.7969749;64.76611781;None;None;None;359.0890871;text_01;152;1;1;1;Reading_Baseline_main_no_click;None;Glück:;;;;;MA01;1;no;670;1992;62;138;276;2024-08-22_08h56.49.616;EXNAT_3_fMRI_Psychopy2023.1.3;03.01.23;75.02153538
0;0;0;0;;;;;;;;;;;#2AB7EF;610.169347;65.13848996;None;None;None;316.1139619;text_01;153;1;1;1;Reading_Baseline_main_no_click;None;Sie;;;;;MA01;1;no;670;1992;62;138;276;2024-08-22_08h56.49.616;EXNAT_3_fMRI_Psychopy2023.1.3;03.01.23;75.02153538
0;0;0;0;;;;;;;;;;;#D292F3;610.4893651;65.45850801;None;None;None;359.0890871;text_01;154;1;1;1;Reading_Baseline_main_no_click;None;gelten;;;;;MA01;1;no;670;1992;62;138;276;2024-08-22_08h56.49.616;EXNAT_3_fMRI_Psychopy2023.1.3;03.01.23;75.02153538
0;0;0;0;;;;;;;;;;;#F989A2;610.8624561;65.831599;None;None;None;333.9502504;text_01;155;1;1;1;Reading_Baseline_main_no_click;None;zwar;;;;;MA01;1;no;670;1992;62;138;276;2024-08-22_08h56.49.616;EXNAT_3_fMRI_Psychopy2023.1.3;03.01.23;75.02153538
0;0;0;0;;;;;;;;;;;#88BA3F;611.208977;66.1781199;None;None;None;310;text_01;156;1;1;1;Reading_Baseline_main_no_click;None;in;;;;;MA01;1;no;670;1992;62;138;276;2024-08-22_08h56.49.616;EXNAT_3_fMRI_Psychopy2023.1.3;03.01.23;75.02153538
0;0;0;0;;;;;;;;;;;#F989A2;611.529459;66.49860191;None;None;None;368.6464292;text_01;157;1;1;1;Reading_Baseline_main_no_click;None;manchen;;;;;MA01;1;no;670;1992;62;138;276;2024-08-22_08h56.49.616;EXNAT_3_fMRI_Psychopy2023.1.3;03.01.23;75.02153538
0;0;0;0;;;;;;;;;;;#F989A2;611.90288;66.87202287;None;None;None;368.6464292;text_01;158;1;1;1;Reading_Baseline_main_no_click;None;Ländern;;;;;MA01;1;no;670;1992;62;138;276;2024-08-22_08h56.49.616;EXNAT_3_fMRI_Psychopy2023.1.3;03.01.23;75.02153538
0;0;0;0;;;;;;;;;;;#88BA3F;612.2753501;67.24449301;None;None;None;316.1139619;text_01;159;1;1;1;Reading_Baseline_main_no_click;None;als;;;;;MA01;1;no;670;1992;62;138;276;2024-08-22_08h56.49.616;EXNAT_3_fMRI_Psychopy2023.1.3;03.01.23;75.02153538
0;0;0;0;;;;;;;;;;;#F989A2;612.595681;67.56482387;None;None;None;402.0642123;text_01;160;1;1;1;Reading_Baseline_main_no_click;None;Delikatesse,;;;;;MA01;1;no;670;1992;62;138;276;2024-08-22_08h56.49.616;EXNAT_3_fMRI_Psychopy2023.1.3;03.01.23;75.02153538
0;0;0;0;;;;;;;;;;;#88BA3F;613.008534;67.97767687;None;None;None;359.0890871;text_01;161;1;1;1;Reading_Baseline_main_no_click;None;werden;;;;;MA01;1;no;670;1992;62;138;276;2024-08-22_08h56.49.616;EXNAT_3_fMRI_Psychopy2023.1.3;03.01.23;75.02153538
0;0;0;0;;;;;;;;;;;#D292F3;613.3815949;68.35073781;None;None;None;310;text_01;162;1;1;1;Reading_Baseline_main_no_click;None;in;;;;;MA01;1;no;670;1992;62;138;276;2024-08-22_08h56.49.616;EXNAT_3_fMRI_Psychopy2023.1.3;03.01.23;75.02153538
0;0;0;0;;;;;;;;;;;#2AB7EF;613.7017009;68.67084384;None;None;None;347.7851506;text_01;163;1;1;1;Reading_Baseline_main_no_click;None;Chile;;;;;MA01;1;no;670;1992;62;138;276;2024-08-22_08h56.49.616;EXNAT_3_fMRI_Psychopy2023.1.3;03.01.23;75.02153538
0;0;0;0;;;;;;;;;;;#D292F3;614.061919;69.03106189;None;None;None;359.0890871;text_01;164;1;1;1;Reading_Baseline_main_no_click;None;jedoch;;;;;MA01;1;no;670;1992;62;138;276;2024-08-22_08h56.49.616;EXNAT_3_fMRI_Psychopy2023.1.3;03.01.23;75.02153538
0;0;0;0;;;;;;;;;;;#2AB7EF;614.4347341;69.40387702;None;None;None;347.7851506;text_01;165;1;1;1;Reading_Baseline_main_no_click;None;nicht;;;;;MA01;1;no;670;1992;62;138;276;2024-08-22_08h56.49.616;EXNAT_3_fMRI_Psychopy2023.1.3;03.01.23;75.02153538
0;0;0;0;;;;;;;;;;;#D292F3;614.795094;69.76423693;None;None;None;384.2279238;text_01;166;1;1;1;Reading_Baseline_main_no_click;None;gegessen.;;;;;MA01;1;no;670;1992;62;138;276;2024-08-22_08h56.49.616;EXNAT_3_fMRI_Psychopy2023.1.3;03.01.23;75.02153538
0;0;0;0;;;;;;;;;;;#2AB7EF;615.19467;70.16381288;None;None;None;411.6215544;text_01;167;1;1;1;Reading_Baseline_main_no_click;None;Meeresbiologen;;;;;MA01;1;no;670;1992;62;138;276;2024-08-22_08h56.49.616;EXNAT_3_fMRI_Psychopy2023.1.3;03.01.23;75.02153538
0;0;0;0;;;;;;;;;;;#88BA3F;615.620997;70.59013987;None;None;None;368.6464292;text_01;168;1;1;1;Reading_Baseline_main_no_click;None;standen;;;;;MA01;1;no;670;1992;62;138;276;2024-08-22_08h56.49.616;EXNAT_3_fMRI_Psychopy2023.1.3;03.01.23;75.02153538
0;0;0;0;;;;;;;;;;;#D292F3;615.9941361;70.96327901;None;None;None;347.7851506;text_01;169;1;1;1;Reading_Baseline_main_no_click;None;wegen;;;;;MA01;1;no;670;1992;62;138;276;2024-08-22_08h56.49.616;EXNAT_3_fMRI_Psychopy2023.1.3;03.01.23;75.02153538
0;0;0;0;;;;;;;;;;;#D292F3;616.353822;71.32296491;None;None;None;316.1139619;text_01;170;1;1;1;Reading_Baseline_main_no_click;None;des;;;;;MA01;1;no;670;1992;62;138;276;2024-08-22_08h56.49.616;EXNAT_3_fMRI_Psychopy2023.1.3;03.01.23;75.02153538
0;0;0;0;;;;;;;;;;;#D292F3;616.674684;71.64382696;None;None;None;396.6695069;text_01;171;1;1;1;Reading_Baseline_main_no_click;None;plötzlichen;;;;;MA01;1;no;670;1992;62;138;276;2024-08-22_08h56.49.616;EXNAT_3_fMRI_Psychopy2023.1.3;03.01.23;75.02153538
0;0;0;0;;;;;;;;;;;#F989A2;617.074614;72.04375696;None;None;None;396.6695069;text_01;172;1;1;1;Reading_Baseline_main_no_click;None;Erscheinens;;;;;MA01;1;no;670;1992;62;138;276;2024-08-22_08h56.49.616;EXNAT_3_fMRI_Psychopy2023.1.3;03.01.23;75.02153538
0;0;0;0;;;;;;;;;;;#88BA3F;617.473459;72.44260192;None;None;None;316.1139619;text_01;173;1;1;1;Reading_Baseline_main_no_click;None;der;;;;;MA01;1;no;670;1992;62;138;276;2024-08-22_08h56.49.616;EXNAT_3_fMRI_Psychopy2023.1.3;03.01.23;75.02153538
0;0;0;0;;;;;;;;;;;#D292F3;617.7935071;72.76265001;None;None;None;368.6464292;text_01;174;1;1;1;Reading_Baseline_main_no_click;None;Kalmare;;;;;MA01;1;no;670;1992;62;138;276;2024-08-22_08h56.49.616;EXNAT_3_fMRI_Psychopy2023.1.3;03.01.23;75.02153538
0;0;0;0;;;;;;;;;;;#F989A2;618.1666889;73.13583183;None;None;None;376.9253756;text_01;175;1;1;1;Reading_Baseline_main_no_click;None;zunächst;;;;;MA01;1;no;670;1992;62;138;276;2024-08-22_08h56.49.616;EXNAT_3_fMRI_Psychopy2023.1.3;03.01.23;75.02153538
0;0;0;0;;;;;;;;;;;#88BA3F;618.553154;73.52229691;None;None;None;316.1139619;text_01;176;1;1;1;Reading_Baseline_main_no_click;None;vor;;;;;MA01;1;no;670;1992;62;138;276;2024-08-22_08h56.49.616;EXNAT_3_fMRI_Psychopy2023.1.3;03.01.23;75.02153538
0;0;0;0;;;;;;;;;;;#2AB7EF;618.873107;73.84224987;None;None;None;347.7851506;text_01;177;1;1;1;Reading_Baseline_main_no_click;None;einem;;;;;MA01;1;no;670;1992;62;138;276;2024-08-22_08h56.49.616;EXNAT_3_fMRI_Psychopy2023.1.3;03.01.23;75.02153538
0;0;0;0;;;;;;;;;;;#F989A2;619.2329659;74.20210886;None;None;None;359.0890871;text_01;178;1;1;1;Reading_Baseline_main_no_click;None;großen;;;;;MA01;1;no;670;1992;62;138;276;2024-08-22_08h56.49.616;EXNAT_3_fMRI_Psychopy2023.1.3;03.01.23;75.02153538
0;0;0;0;;;;;;;;;;;#2AB7EF;619.606786;74.57592893;None;None;None;368.6464292;text_01;179;1;1;1;Reading_Baseline_main_no_click;None;Rätsel.;;;;;MA01;1;no;670;1992;62;138;276;2024-08-22_08h56.49.616;EXNAT_3_fMRI_Psychopy2023.1.3;03.01.23;75.02153538
0;0;0;0;;;;;;;;;;;#2AB7EF;619.9796269;74.94876981;None;None;None;316.1139619;text_01;180;1;1;1;Reading_Baseline_main_no_click;None;Nun;;;;;MA01;1;no;670;1992;62;138;276;2024-08-22_08h56.49.616;EXNAT_3_fMRI_Psychopy2023.1.3;03.01.23;75.02153538
0;0;0;0;;;;;;;;;;;#88BA3F;620.299216;75.26835895;None;None;None;316.1139619;text_01;181;1;1;1;Reading_Baseline_main_no_click;None;ist;;;;;MA01;1;no;670;1992;62;138;276;2024-08-22_08h56.49.616;EXNAT_3_fMRI_Psychopy2023.1.3;03.01.23;75.02153538
0;0;0;0;;;;;;;;;;;#D292F3;620.6193249;75.58846784;None;None;None;359.0890871;text_01;182;1;1;1;Reading_Baseline_main_no_click;None;jedoch;;;;;MA01;1;no;670;1992;62;138;276;2024-08-22_08h56.49.616;EXNAT_3_fMRI_Psychopy2023.1.3;03.01.23;75.02153538
0;0;0;0;;;;;;;;;;;#88BA3F;620.9923639;75.96150684;None;None;None;347.7851506;text_01;183;1;1;1;Reading_Baseline_main_no_click;None;klar,;;;;;MA01;1;no;670;1992;62;138;276;2024-08-22_08h56.49.616;EXNAT_3_fMRI_Psychopy2023.1.3;03.01.23;75.02153538
0;0;0;0;;;;;;;;;;;#F989A2;621.352237;76.3213799;None;None;None;368.6464292;text_01;184;1;1;1;Reading_Baseline_main_no_click;None;weshalb;;;;;MA01;1;no;670;1992;62;138;276;2024-08-22_08h56.49.616;EXNAT_3_fMRI_Psychopy2023.1.3;03.01.23;75.02153538
0;0;0;0;;;;;;;;;;;#D292F3;621.725328;76.69447088;None;None;None;316.1139619;text_01;185;1;1;1;Reading_Baseline_main_no_click;None;die;;;;;MA01;1;no;670;1992;62;138;276;2024-08-22_08h56.49.616;EXNAT_3_fMRI_Psychopy2023.1.3;03.01.23;75.02153538
0;0;0;0;;;;;;;;;;;#88BA3F;622.0456409;77.01478386;None;None;None;368.6464292;text_01;186;1;1;1;Reading_Baseline_main_no_click;None;Kalmare;;;;;MA01;1;no;670;1992;62;138;276;2024-08-22_08h56.49.616;EXNAT_3_fMRI_Psychopy2023.1.3;03.01.23;75.02153538
0;0;0;0;;;;;;;;;;;#D292F3;622.4190569;77.38819981;None;None;None;384.2279238;text_01;187;1;1;1;Reading_Baseline_main_no_click;None;plötzlich;;;;;MA01;1;no;670;1992;62;138;276;2024-08-22_08h56.49.616;EXNAT_3_fMRI_Psychopy2023.1.3;03.01.23;75.02153538
0;0;0;0;;;;;;;;;;;#F989A2;622.8188231;77.78796601;None;None;None;402.0642123;text_01;188;1;1;1;Reading_Baseline_main_no_click;None;auftauchten.;;;;;MA01;1;no;670;1992;62;138;276;2024-08-22_08h56.49.616;EXNAT_3_fMRI_Psychopy2023.1.3;03.01.23;75.02153538
0;0;0;0;;;;;;;;;;;#D292F3;623.2315631;78.20070601;None;None;None;310;text_01;189;1;1;1;Reading_Baseline_main_no_click;None;Im;;;;;MA01;1;no;670;1992;62;138;276;2024-08-22_08h56.49.616;EXNAT_3_fMRI_Psychopy2023.1.3;03.01.23;75.02153538
0;0;0;0;;;;;;;;;;;#88BA3F;623.551455;78.52059793;None;None;None;368.6464292;text_01;190;1;1;1;Reading_Baseline_main_no_click;None;Februar;;;;;MA01;1;no;670;1992;62;138;276;2024-08-22_08h56.49.616;EXNAT_3_fMRI_Psychopy2023.1.3;03.01.23;75.02153538
0;0;0;0;;;;;;;;;;;#D292F3;623.9250801;78.89422297;None;None;None;376.9253756;text_01;191;1;1;1;Reading_Baseline_main_no_click;None;erwärmte;;;;;MA01;1;no;670;1992;62;138;276;2024-08-22_08h56.49.616;EXNAT_3_fMRI_Psychopy2023.1.3;03.01.23;75.02153538
0;0;0;0;;;;;;;;;;;#2AB7EF;624.311321;79.28046393;None;None;None;333.9502504;text_01;192;1;1;1;Reading_Baseline_main_no_click;None;sich;;;;;MA01;1;no;670;1992;62;138;276;2024-08-22_08h56.49.616;EXNAT_3_fMRI_Psychopy2023.1.3;03.01.23;75.02153538
0;0;0;0;;;;;;;;;;;#F989A2;624.6578779;79.62702084;None;None;None;316.1139619;text_01;193;1;1;1;Reading_Baseline_main_no_click;None;das;;;;;MA01;1;no;670;1992;62;138;276;2024-08-22_08h56.49.616;EXNAT_3_fMRI_Psychopy2023.1.3;03.01.23;75.02153538
0;0;0;0;;;;;;;;;;;#D292F3;624.977735;79.94687796;None;None;None;333.9502504;text_01;194;1;1;1;Reading_Baseline_main_no_click;None;Meer;;;;;MA01;1;no;670;1992;62;138;276;2024-08-22_08h56.49.616;EXNAT_3_fMRI_Psychopy2023.1.3;03.01.23;75.02153538
0;0;0;0;;;;;;;;;;;#88BA3F;625.3245921;80.29373503;None;None;None;390.7602758;text_01;195;1;1;1;Reading_Baseline_main_no_click;None;verglichen;;;;;MA01;1;no;670;1992;62;138;276;2024-08-22_08h56.49.616;EXNAT_3_fMRI_Psychopy2023.1.3;03.01.23;75.02153538
0;0;0;0;;;;;;;;;;;#2AB7EF;625.724206;80.69334888;None;None;None;316.1139619;text_01;196;1;1;1;Reading_Baseline_main_no_click;None;mit;;;;;MA01;1;no;670;1992;62;138;276;2024-08-22_08h56.49.616;EXNAT_3_fMRI_Psychopy2023.1.3;03.01.23;75.02153538
0;0;0;0;;;;;;;;;;;#2AB7EF;626.044246;81.01338887;None;None;None;316.1139619;text_01;197;1;1;1;Reading_Baseline_main_no_click;None;den;;;;;MA01;1;no;670;1992;62;138;276;2024-08-22_08h56.49.616;EXNAT_3_fMRI_Psychopy2023.1.3;03.01.23;75.02153538
0;0;0;0;;;;;;;;;;;#F989A2;626.3641541;81.33329701;None;None;None;402.0642123;text_01;198;1;1;1;Reading_Baseline_main_no_click;None;Temperaturen;;;;;MA01;1;no;670;1992;62;138;276;2024-08-22_08h56.49.616;EXNAT_3_fMRI_Psychopy2023.1.3;03.01.23;75.02153538
0;0;0;0;;;;;;;;;;;#D292F3;626.7769711;81.74611402;None;None;None;310;text_01;199;1;1;1;Reading_Baseline_main_no_click;None;in;;;;;MA01;1;no;670;1992;62;138;276;2024-08-22_08h56.49.616;EXNAT_3_fMRI_Psychopy2023.1.3;03.01.23;75.02153538
0;0;0;0;;;;;;;;;;;#2AB7EF;627.096787;82.06592989;None;None;None;316.1139619;text_01;200;1;1;1;Reading_Baseline_main_no_click;None;den;;;;;MA01;1;no;670;1992;62;138;276;2024-08-22_08h56.49.616;EXNAT_3_fMRI_Psychopy2023.1.3;03.01.23;75.02153538
0;0;0;0;;;;;;;;;;;#88BA3F;627.417104;82.38624692;None;None;None;384.2279238;text_01;201;1;1;1;Reading_Baseline_main_no_click;None;Vorjahren;;;;;MA01;1;no;670;1992;62;138;276;2024-08-22_08h56.49.616;EXNAT_3_fMRI_Psychopy2023.1.3;03.01.23;75.02153538
0;0;0;0;;;;;;;;;;;#F989A2;627.817451;82.78659391;None;None;None;402.0642123;text_01;202;1;1;1;Reading_Baseline_main_no_click;None;ungewöhnlich;;;;;MA01;1;no;670;1992;62;138;276;2024-08-22_08h56.49.616;EXNAT_3_fMRI_Psychopy2023.1.3;03.01.23;75.02153538
0;0;0;0;;;;;;;;;;;#2AB7EF;628.2301271;83.19927001;None;None;None;359.0890871;text_01;203;1;1;1;Reading_Baseline_main_no_click;None;stark.;;;;;MA01;1;no;670;1992;62;138;276;2024-08-22_08h56.49.616;EXNAT_3_fMRI_Psychopy2023.1.3;03.01.23;75.02153538
0;0;0;0;;;;;;;;;;;#D292F3;628.6033471;83.57248998;None;None;None;310;text_01;204;1;1;1;Reading_Baseline_main_no_click;None;Es;;;;;MA01;1;no;670;1992;62;138;276;2024-08-22_08h56.49.616;EXNAT_3_fMRI_Psychopy2023.1.3;03.01.23;75.02153538
0;0;0;0;;;;;;;;;;;#F989A2;628.923286;83.89242887;None;None;None;384.2279238;text_01;205;1;1;1;Reading_Baseline_main_no_click;None;sammelten;;;;;MA01;1;no;670;1992;62;138;276;2024-08-22_08h56.49.616;EXNAT_3_fMRI_Psychopy2023.1.3;03.01.23;75.02153538
0;0;0;0;;;;;;;;;;;#88BA3F;629.3227251;84.29186797;None;None;None;333.9502504;text_01;206;1;1;1;Reading_Baseline_main_no_click;None;sich;;;;;MA01;1;no;670;1992;62;138;276;2024-08-22_08h56.49.616;EXNAT_3_fMRI_Psychopy2023.1.3;03.01.23;75.02153538
0;0;0;0;;;;;;;;;;;#F989A2;629.6693521;84.63849497;None;None;None;347.7851506;text_01;207;1;1;1;Reading_Baseline_main_no_click;None;viele;;;;;MA01;1;no;670;1992;62;138;276;2024-08-22_08h56.49.616;EXNAT_3_fMRI_Psychopy2023.1.3;03.01.23;75.02153538
0;0;0;0;;;;;;;;;;;#D292F3;630.02935;84.99849296;None;None;None;359.0890871;text_01;208;1;1;1;Reading_Baseline_main_no_click;None;kleine;;;;;MA01;1;no;670;1992;62;138;276;2024-08-22_08h56.49.616;EXNAT_3_fMRI_Psychopy2023.1.3;03.01.23;75.02153538
0;0;0;0;;;;;;;;;;;#88BA3F;630.402436;85.37157893;None;None;None;359.0890871;text_01;209;1;1;1;Reading_Baseline_main_no_click;None;Fische;;;;;MA01;1;no;670;1992;62;138;276;2024-08-22_08h56.49.616;EXNAT_3_fMRI_Psychopy2023.1.3;03.01.23;75.02153538
0;0;0;0;;;;;;;;;;;#2AB7EF;630.7756431;85.74478602;None;None;None;316.1139619;text_01;210;1;1;1;Reading_Baseline_main_no_click;None;vor;;;;;MA01;1;no;670;1992;62;138;276;2024-08-22_08h56.49.616;EXNAT_3_fMRI_Psychopy2023.1.3;03.01.23;75.02153538
0;0;0;0;;;;;;;;;;;#F989A2;631.0956709;86.06481385;None;None;None;316.1139619;text_01;211;1;1;1;Reading_Baseline_main_no_click;None;der;;;;;MA01;1;no;670;1992;62;138;276;2024-08-22_08h56.49.616;EXNAT_3_fMRI_Psychopy2023.1.3;03.01.23;75.02153538
0;0;0;0;;;;;;;;;;;#2AB7EF;631.415961;86.38510394;None;None;None;359.0890871;text_01;212;1;1;1;Reading_Baseline_main_no_click;None;Küste.;;;;;MA01;1;no;670;1992;62;138;276;2024-08-22_08h56.49.616;EXNAT_3_fMRI_Psychopy2023.1.3;03.01.23;75.02153538
0;0;0;0;;;;;;;;;;;#88BA3F;631.7891641;86.75830698;None;None;None;316.1139619;text_01;213;1;1;1;Reading_Baseline_main_no_click;None;Die;;;;;MA01;1;no;670;1992;62;138;276;2024-08-22_08h56.49.616;EXNAT_3_fMRI_Psychopy2023.1.3;03.01.23;75.02153538
0;0;0;0;;;;;;;;;;;#F989A2;632.108741;87.07788396;None;None;None;368.6464292;text_01;214;1;1;1;Reading_Baseline_main_no_click;None;Kalmare;;;;;MA01;1;no;670;1992;62;138;276;2024-08-22_08h56.49.616;EXNAT_3_fMRI_Psychopy2023.1.3;03.01.23;75.02153538
0;0;0;0;;;;;;;;;;;#88BA3F;632.4819391;87.45108199;None;None;None;359.0890871;text_01;215;1;1;1;Reading_Baseline_main_no_click;None;wurden;;;;;MA01;1;no;670;1992;62;138;276;2024-08-22_08h56.49.616;EXNAT_3_fMRI_Psychopy2023.1.3;03.01.23;75.02153538
0;0;0;0;;;;;;;;;;;#2AB7EF;632.8552001;87.82434297;None;None;None;368.6464292;text_01;216;1;1;1;Reading_Baseline_main_no_click;None;dadurch;;;;;MA01;1;no;670;1992;62;138;276;2024-08-22_08h56.49.616;EXNAT_3_fMRI_Psychopy2023.1.3;03.01.23;75.02153538
0;0;0;0;;;;;;;;;;;#F989A2;633.2281611;88.19730401;None;None;None;368.6464292;text_01;217;1;1;1;Reading_Baseline_main_no_click;None;magisch;;;;;MA01;1;no;670;1992;62;138;276;2024-08-22_08h56.49.616;EXNAT_3_fMRI_Psychopy2023.1.3;03.01.23;75.02153538
0;0;0;0;;;;;;;;;;;#F989A2;633.6013889;88.57053185;None;None;None;390.7602758;text_01;218;1;1;1;Reading_Baseline_main_no_click;None;angezogen.;;;;;MA01;1;no;670;1992;62;138;276;2024-08-22_08h56.49.616;EXNAT_3_fMRI_Psychopy2023.1.3;03.01.23;75.02153538
0;0;0;0;;;;;;;;;;;#D292F3;634.001353;88.97049594;None;None;None;316.1139619;text_01;219;1;1;1;Reading_Baseline_main_no_click;None;Die;;;;;MA01;1;no;670;1992;62;138;276;2024-08-22_08h56.49.616;EXNAT_3_fMRI_Psychopy2023.1.3;03.01.23;75.02153538
0;0;0;0;;;;;;;;;;;#2AB7EF;634.3211801;89.29032302;None;None;None;368.6464292;text_01;220;1;1;1;Reading_Baseline_main_no_click;None;kleinen;;;;;MA01;1;no;670;1992;62;138;276;2024-08-22_08h56.49.616;EXNAT_3_fMRI_Psychopy2023.1.3;03.01.23;75.02153538
0;0;0;0;;;;;;;;;;;#D292F3;634.6943669;89.66350985;None;None;None;359.0890871;text_01;221;1;1;1;Reading_Baseline_main_no_click;None;Fische;;;;;MA01;1;no;670;1992;62;138;276;2024-08-22_08h56.49.616;EXNAT_3_fMRI_Psychopy2023.1.3;03.01.23;75.02153538
0;0;0;0;;;;;;;;;;;#F989A2;635.0678451;90.03698802;None;None;None;376.9253756;text_01;222;1;1;1;Reading_Baseline_main_no_click;None;bedeuten;;;;;MA01;1;no;670;1992;62;138;276;2024-08-22_08h56.49.616;EXNAT_3_fMRI_Psychopy2023.1.3;03.01.23;75.02153538
0;0;0;0;;;;;;;;;;;#2AB7EF;635.454205;90.42334795;None;None;None;316.1139619;text_01;223;1;1;1;Reading_Baseline_main_no_click;None;für;;;;;MA01;1;no;670;1992;62;138;276;2024-08-22_08h56.49.616;EXNAT_3_fMRI_Psychopy2023.1.3;03.01.23;75.02153538
0;0;0;0;;;;;;;;;;;#D292F3;635.7738199;90.74296284;None;None;None;316.1139619;text_01;224;1;1;1;Reading_Baseline_main_no_click;None;sie;;;;;MA01;1;no;670;1992;62;138;276;2024-08-22_08h56.49.616;EXNAT_3_fMRI_Psychopy2023.1.3;03.01.23;75.02153538
0;0;0;0;;;;;;;;;;;#88BA3F;636.094399;91.06354189;None;None;None;359.0890871;text_01;225;1;1;1;Reading_Baseline_main_no_click;None;reiche;;;;;MA01;1;no;670;1992;62;138;276;2024-08-22_08h56.49.616;EXNAT_3_fMRI_Psychopy2023.1.3;03.01.23;75.02153538
0;0;0;0;;;;;;;;;;;#2AB7EF;636.467062;91.43620491;None;None;None;359.0890871;text_01;226;1;1;1;Reading_Baseline_main_no_click;None;Beute.;;;;;MA01;1;no;670;1992;62;138;276;2024-08-22_08h56.49.616;EXNAT_3_fMRI_Psychopy2023.1.3;03.01.23;75.02153538
0;0;0;0;;;;;;;;;;;#88BA3F;636.8408439;91.80998683;None;None;None;316.1139619;text_01;227;1;1;1;Reading_Baseline_main_no_click;None;Für;;;;;MA01;1;no;670;1992;62;138;276;2024-08-22_08h56.49.616;EXNAT_3_fMRI_Psychopy2023.1.3;03.01.23;75.02153538
0;0;0;0;;;;;;;;;;;#88BA3F;637.160147;92.12928987;None;None;None;376.9253756;text_01;228;1;1;1;Reading_Baseline_main_no_click;None;Forscher;;;;;MA01;1;no;670;1992;62;138;276;2024-08-22_08h56.49.616;EXNAT_3_fMRI_Psychopy2023.1.3;03.01.23;75.02153538
0;0;0;0;;;;;;;;;;;#D292F3;637.5464349;92.51557779;None;None;None;316.1139619;text_01;229;1;1;1;Reading_Baseline_main_no_click;None;ist;;;;;MA01;1;no;670;1992;62;138;276;2024-08-22_08h56.49.616;EXNAT_3_fMRI_Psychopy2023.1.3;03.01.23;75.02153538
0;0;0;0;;;;;;;;;;;#88BA3F;637.8663831;92.83552599;None;None;None;316.1139619;text_01;230;1;1;1;Reading_Baseline_main_no_click;None;das;;;;;MA01;1;no;670;1992;62;138;276;2024-08-22_08h56.49.616;EXNAT_3_fMRI_Psychopy2023.1.3;03.01.23;75.02153538
0;0;0;0;;;;;;;;;;;#2AB7EF;638.186425;93.15556788;None;None;None;316.1139619;text_01;231;1;1;1;Reading_Baseline_main_no_click;None;ein;;;;;MA01;1;no;670;1992;62;138;276;2024-08-22_08h56.49.616;EXNAT_3_fMRI_Psychopy2023.1.3;03.01.23;75.02153538
0;0;0;0;;;;;;;;;;;#F989A2;638.506603;93.47574592;None;None;None;390.7602758;text_01;232;1;1;1;Reading_Baseline_main_no_click;None;besonderer;;;;;MA01;1;no;670;1992;62;138;276;2024-08-22_08h56.49.616;EXNAT_3_fMRI_Psychopy2023.1.3;03.01.23;75.02153538
0;0;0;0;;;;;;;;;;;#D292F3;638.906544;93.87568688;None;None;None;396.6695069;text_01;233;1;1;1;Reading_Baseline_main_no_click;None;Glücksfall.;;;;;MA01;1;no;670;1992;62;138;276;2024-08-22_08h56.49.616;EXNAT_3_fMRI_Psychopy2023.1.3;03.01.23;75.02153538
0;0;0;0;;;;;;;;;;;#88BA3F;639.306309;94.2754519;None;None;None;407.0268602;text_01;234;1;1;1;Reading_Baseline_main_no_click;None;Normalerweise;;;;;MA01;1;no;670;1992;62;138;276;2024-08-22_08h56.49.616;EXNAT_3_fMRI_Psychopy2023.1.3;03.01.23;75.02153538
0;0;0;0;;;;;;;;;;;#2AB7EF;639.718986;94.68812895;None;None;None;333.9502504;text_01;235;1;1;1;Reading_Baseline_main_no_click;None;sind;;;;;MA01;1;no;670;1992;62;138;276;2024-08-22_08h56.49.616;EXNAT_3_fMRI_Psychopy2023.1.3;03.01.23;75.02153538
0;0;0;0;;;;;;;;;;;#F989A2;640.065506;95.0346489;None;None;None;316.1139619;text_01;236;1;1;1;Reading_Baseline_main_no_click;None;die;;;;;MA01;1;no;670;1992;62;138;276;2024-08-22_08h56.49.616;EXNAT_3_fMRI_Psychopy2023.1.3;03.01.23;75.02153538
0;0;0;0;;;;;;;;;;;#2AB7EF;640.385536;95.35467887;None;None;None;359.0890871;text_01;237;1;1;1;Reading_Baseline_main_no_click;None;großen;;;;;MA01;1;no;670;1992;62;138;276;2024-08-22_08h56.49.616;EXNAT_3_fMRI_Psychopy2023.1.3;03.01.23;75.02153538
0;0;0;0;;;;;;;;;;;#D292F3;640.75893;95.72807288;None;None;None;368.6464292;text_01;238;1;1;1;Reading_Baseline_main_no_click;None;Kalmare;;;;;MA01;1;no;670;1992;62;138;276;2024-08-22_08h56.49.616;EXNAT_3_fMRI_Psychopy2023.1.3;03.01.23;75.02153538
0;0;0;0;;;;;;;;;;;#88BA3F;641.1319909;96.10113382;None;None;None;310;text_01;239;1;1;1;Reading_Baseline_main_no_click;None;so;;;;;MA01;1;no;670;1992;62;138;276;2024-08-22_08h56.49.616;EXNAT_3_fMRI_Psychopy2023.1.3;03.01.23;75.02153538
0;0;0;0;;;;;;;;;;;#F989A2;641.4518991;96.42104197;None;None;None;359.0890871;text_01;240;1;1;1;Reading_Baseline_main_no_click;None;schwer;;;;;MA01;1;no;670;1992;62;138;276;2024-08-22_08h56.49.616;EXNAT_3_fMRI_Psychopy2023.1.3;03.01.23;75.02153538
0;0;0;0;;;;;;;;;;;#2AB7EF;641.824909;96.79405189;None;None;None;316.1139619;text_01;241;1;1;1;Reading_Baseline_main_no_click;None;vor;;;;;MA01;1;no;670;1992;62;138;276;2024-08-22_08h56.49.616;EXNAT_3_fMRI_Psychopy2023.1.3;03.01.23;75.02153538
0;0;0;0;;;;;;;;;;;#D292F3;642.1448131;97.11395597;None;None;None;316.1139619;text_01;242;1;1;1;Reading_Baseline_main_no_click;None;die;;;;;MA01;1;no;670;1992;62;138;276;2024-08-22_08h56.49.616;EXNAT_3_fMRI_Psychopy2023.1.3;03.01.23;75.02153538
0;0;0;0;;;;;;;;;;;#2AB7EF;642.4650619;97.43420482;None;None;None;359.0890871;text_01;243;1;1;1;Reading_Baseline_main_no_click;None;Kamera;;;;;MA01;1;no;670;1992;62;138;276;2024-08-22_08h56.49.616;EXNAT_3_fMRI_Psychopy2023.1.3;03.01.23;75.02153538
0;0;0;0;;;;;;;;;;;#F989A2;642.838141;97.80728388;None;None;None;310;text_01;244;1;1;1;Reading_Baseline_main_no_click;None;zu;;;;;MA01;1;no;670;1992;62;138;276;2024-08-22_08h56.49.616;EXNAT_3_fMRI_Psychopy2023.1.3;03.01.23;75.02153538
0;0;0;0;;;;;;;;;;;#D292F3;643.1582279;98.12737083;None;None;None;384.2279238;text_01;245;1;1;1;Reading_Baseline_main_no_click;None;bekommen,;;;;;MA01;1;no;670;1992;62;138;276;2024-08-22_08h56.49.616;EXNAT_3_fMRI_Psychopy2023.1.3;03.01.23;75.02153538
0;0;0;0;;;;;;;;;;;#88BA3F;643.5578129;98.52695584;None;None;None;333.9502504;text_01;246;1;1;1;Reading_Baseline_main_no_click;None;dass;;;;;MA01;1;no;670;1992;62;138;276;2024-08-22_08h56.49.616;EXNAT_3_fMRI_Psychopy2023.1.3;03.01.23;75.02153538
0;0;0;0;;;;;;;;;;;#F989A2;643.9046121;98.87375498;None;None;None;376.9253756;text_01;247;1;1;1;Reading_Baseline_main_no_click;None;Forscher;;;;;MA01;1;no;670;1992;62;138;276;2024-08-22_08h56.49.616;EXNAT_3_fMRI_Psychopy2023.1.3;03.01.23;75.02153538
0;0;0;0;;;;;;;;;;;#88BA3F;644.291153;99.26029587;None;None;None;384.2279238;text_01;248;1;1;1;Reading_Baseline_main_no_click;None;teilweise;;;;;MA01;1;no;670;1992;62;138;276;2024-08-22_08h56.49.616;EXNAT_3_fMRI_Psychopy2023.1.3;03.01.23;75.02153538
0;0;0;0;;;;;;;;;;;#F989A2;644.690542;99.6596849;None;None;None;316.1139619;text_01;249;1;1;1;Reading_Baseline_main_no_click;None;auf;;;;;MA01;1;no;670;1992;62;138;276;2024-08-22_08h56.49.616;EXNAT_3_fMRI_Psychopy2023.1.3;03.01.23;75.02153538
0;0;0;0;;;;;;;;;;;#88BA3F;645.0106111;99.97975397;None;None;None;376.9253756;text_01;250;1;1;1;Reading_Baseline_main_no_click;None;seltsame;;;;;MA01;1;no;670;1992;62;138;276;2024-08-22_08h56.49.616;EXNAT_3_fMRI_Psychopy2023.1.3;03.01.23;75.02153538
0;0;0;0;;;;;;;;;;;#2AB7EF;645.3972449;100.3663878;None;None;None;347.7851506;text_01;251;1;1;1;Reading_Baseline_main_no_click;None;Ideen;;;;;MA01;1;no;670;1992;62;138;276;2024-08-22_08h56.49.616;EXNAT_3_fMRI_Psychopy2023.1.3;03.01.23;75.02153538
0;0;0;0;;;;;;;;;;;#88BA3F;645.7570529;100.7261958;None;None;None;368.6464292;text_01;252;1;1;1;Reading_Baseline_main_no_click;None;kommen.;;;;;MA01;1;no;670;1992;62;138;276;2024-08-22_08h56.49.616;EXNAT_3_fMRI_Psychopy2023.1.3;03.01.23;75.02153538
0;0;0;0;;;;;;;;;;;#88BA3F;646.1304281;101.099571;None;None;None;316.1139619;text_01;253;1;1;1;Reading_Baseline_main_no_click;None;Ein;;;;;MA01;1;no;670;1992;62;138;276;2024-08-22_08h56.49.616;EXNAT_3_fMRI_Psychopy2023.1.3;03.01.23;75.02153538
0;0;0;0;;;;;;;;;;;#2AB7EF;646.4503231;101.419466;None;None;None;368.6464292;text_01;254;1;1;1;Reading_Baseline_main_no_click;None;Biologe;;;;;MA01;1;no;670;1992;62;138;276;2024-08-22_08h56.49.616;EXNAT_3_fMRI_Psychopy2023.1.3;03.01.23;75.02153538
0;0;0;0;;;;;;;;;;;#88BA3F;646.8233421;101.792485;None;None;None;316.1139619;text_01;255;1;1;1;Reading_Baseline_main_no_click;None;aus;;;;;MA01;1;no;670;1992;62;138;276;2024-08-22_08h56.49.616;EXNAT_3_fMRI_Psychopy2023.1.3;03.01.23;75.02153538
0;0;0;0;;;;;;;;;;;#F989A2;647.14362;102.1127629;None;None;None;390.7602758;text_01;256;1;1;1;Reading_Baseline_main_no_click;None;Neuseeland;;;;;MA01;1;no;670;1992;62;138;276;2024-08-22_08h56.49.616;EXNAT_3_fMRI_Psychopy2023.1.3;03.01.23;75.02153538
0;0;0;0;;;;;;;;;;;#D292F3;647.5429699;102.5121129;None;None;None;333.9502504;text_01;257;1;1;1;Reading_Baseline_main_no_click;None;etwa;;;;;MA01;1;no;670;1992;62;138;276;2024-08-22_08h56.49.616;EXNAT_3_fMRI_Psychopy2023.1.3;03.01.23;75.02153538
0;0;0;0;;;;;;;;;;;#F989A2;647.889442;102.8585849;None;None;None;333.9502504;text_01;258;1;1;1;Reading_Baseline_main_no_click;None;will;;;;;MA01;1;no;670;1992;62;138;276;2024-08-22_08h56.49.616;EXNAT_3_fMRI_Psychopy2023.1.3;03.01.23;75.02153538
0;0;0;0;;;;;;;;;;;#D292F3;648.2362289;103.2053719;None;None;None;390.7602758;text_01;259;1;1;1;Reading_Baseline_main_no_click;None;versuchen,;;;;;MA01;1;no;670;1992;62;138;276;2024-08-22_08h56.49.616;EXNAT_3_fMRI_Psychopy2023.1.3;03.01.23;75.02153538
0;0;0;0;;;;;;;;;;;#88BA3F;648.6357911;103.604934;None;None;None;316.1139619;text_01;260;1;1;1;Reading_Baseline_main_no_click;None;den;;;;;MA01;1;no;670;1992;62;138;276;2024-08-22_08h56.49.616;EXNAT_3_fMRI_Psychopy2023.1.3;03.01.23;75.02153538
0;0;0;0;;;;;;;;;;;#2AB7EF;648.955904;103.9250469;None;None;None;390.7602758;text_01;261;1;1;1;Reading_Baseline_main_no_click;None;legendären;;;;;MA01;1;no;670;1992;62;138;276;2024-08-22_08h56.49.616;EXNAT_3_fMRI_Psychopy2023.1.3;03.01.23;75.02153538
0;0;0;0;;;;;;;;;;;#88BA3F;649.3561101;104.325253;None;None;None;402.0642123;text_01;262;1;1;1;Reading_Baseline_main_no_click;None;Riesenkalmar;;;;;MA01;1;no;670;1992;62;138;276;2024-08-22_08h56.49.616;EXNAT_3_fMRI_Psychopy2023.1.3;03.01.23;75.02153538
0;0;0;0;;;;;;;;;;;#D292F3;649.7687421;104.737885;None;None;None;316.1139619;text_01;263;1;1;1;Reading_Baseline_main_no_click;None;mit;;;;;MA01;1;no;670;1992;62;138;276;2024-08-22_08h56.49.616;EXNAT_3_fMRI_Psychopy2023.1.3;03.01.23;75.02153538
0;0;0;0;;;;;;;;;;;#F989A2;650.089772;105.0589149;None;None;None;411.6215544;text_01;264;1;1;1;Reading_Baseline_main_no_click;None;Sexualhormonen;;;;;MA01;1;no;670;1992;62;138;276;2024-08-22_08h56.49.616;EXNAT_3_fMRI_Psychopy2023.1.3;03.01.23;75.02153538
0;0;0;0;;;;;;;;;;;#88BA3F;650.5151539;105.4842968;None;None;None;316.1139619;text_01;265;1;1;1;Reading_Baseline_main_no_click;None;vor;;;;;MA01;1;no;670;1992;62;138;276;2024-08-22_08h56.49.616;EXNAT_3_fMRI_Psychopy2023.1.3;03.01.23;75.02153538
0;0;0;0;;;;;;;;;;;#F989A2;650.835057;105.8041999;None;None;None;316.1139619;text_01;266;1;1;1;Reading_Baseline_main_no_click;None;die;;;;;MA01;1;no;670;1992;62;138;276;2024-08-22_08h56.49.616;EXNAT_3_fMRI_Psychopy2023.1.3;03.01.23;75.02153538
0;0;0;0;;;;;;;;;;;#F989A2;651.1551731;106.124316;None;None;None;347.7851506;text_01;267;1;1;1;Reading_Baseline_main_no_click;None;Linse;;;;;MA01;1;no;670;1992;62;138;276;2024-08-22_08h56.49.616;EXNAT_3_fMRI_Psychopy2023.1.3;03.01.23;75.02153538
0;0;0;0;;;;;;;;;;;#D292F3;651.5147369;106.4838798;None;None;None;310;text_01;268;1;1;1;Reading_Baseline_main_no_click;None;zu;;;;;MA01;1;no;670;1992;62;138;276;2024-08-22_08h56.49.616;EXNAT_3_fMRI_Psychopy2023.1.3;03.01.23;75.02153538
0;0;0;0;;;;;;;;;;;#2AB7EF;651.8348811;106.804024;None;None;None;368.6464292;text_01;269;1;1;1;Reading_Baseline_main_no_click;None;locken.;;;;;MA01;1;no;670;1992;62;138;276;2024-08-22_08h56.49.616;EXNAT_3_fMRI_Psychopy2023.1.3;03.01.23;75.02153538
0;0;0;0;;;;;;;;;;;#D292F3;652.2081001;107.177243;None;None;None;316.1139619;text_01;270;1;1;1;Reading_Baseline_main_no_click;None;Der;;;;;MA01;1;no;670;1992;62;138;276;2024-08-22_08h56.49.616;EXNAT_3_fMRI_Psychopy2023.1.3;03.01.23;75.02153538
0;0;0;0;;;;;;;;;;;#88BA3F;652.5282941;107.497437;None;None;None;402.0642123;text_01;271;1;1;1;Reading_Baseline_main_no_click;None;Riesenkalmar;;;;;MA01;1;no;670;1992;62;138;276;2024-08-22_08h56.49.616;EXNAT_3_fMRI_Psychopy2023.1.3;03.01.23;75.02153538
0;0;0;0;;;;;;;;;;;#2AB7EF;652.941227;107.9103699;None;None;None;316.1139619;text_01;272;1;1;1;Reading_Baseline_main_no_click;None;ist;;;;;MA01;1;no;670;1992;62;138;276;2024-08-22_08h56.49.616;EXNAT_3_fMRI_Psychopy2023.1.3;03.01.23;75.02153538
0;0;0;0;;;;;;;;;;;#2AB7EF;653.2608371;108.22998;None;None;None;316.1139619;text_01;273;1;1;1;Reading_Baseline_main_no_click;None;mit;;;;;MA01;1;no;670;1992;62;138;276;2024-08-22_08h56.49.616;EXNAT_3_fMRI_Psychopy2023.1.3;03.01.23;75.02153538
0;0;0;0;;;;;;;;;;;#88BA3F;653.5807509;108.5498939;None;None;None;316.1139619;text_01;274;1;1;1;Reading_Baseline_main_no_click;None;bis;;;;;MA01;1;no;670;1992;62;138;276;2024-08-22_08h56.49.616;EXNAT_3_fMRI_Psychopy2023.1.3;03.01.23;75.02153538
0;0;0;0;;;;;;;;;;;#D292F3;653.9006121;108.869755;None;None;None;310;text_01;275;1;1;1;Reading_Baseline_main_no_click;None;zu;;;;;MA01;1;no;670;1992;62;138;276;2024-08-22_08h56.49.616;EXNAT_3_fMRI_Psychopy2023.1.3;03.01.23;75.02153538
0;0;0;0;;;;;;;;;;;#F989A2;654.220484;109.1896269;None;None;None;310;text_01;276;1;1;1;Reading_Baseline_main_no_click;None;20;;;;;MA01;1;no;670;1992;62;138;276;2024-08-22_08h56.49.616;EXNAT_3_fMRI_Psychopy2023.1.3;03.01.23;75.02153538
0;0;0;0;;;;;;;;;;;#2AB7EF;654.5405481;109.509691;None;None;None;359.0890871;text_01;277;1;1;1;Reading_Baseline_main_no_click;None;Metern;;;;;MA01;1;no;670;1992;62;138;276;2024-08-22_08h56.49.616;EXNAT_3_fMRI_Psychopy2023.1.3;03.01.23;75.02153538
0;0;0;0;;;;;;;;;;;#88BA3F;654.9138949;109.8830378;None;None;None;347.7851506;text_01;278;1;1;1;Reading_Baseline_main_no_click;None;Länge;;;;;MA01;1;no;670;1992;62;138;276;2024-08-22_08h56.49.616;EXNAT_3_fMRI_Psychopy2023.1.3;03.01.23;75.02153538
0;0;0;0;;;;;;;;;;;#F989A2;655.2735779;110.2427208;None;None;None;316.1139619;text_01;279;1;1;1;Reading_Baseline_main_no_click;None;und;;;;;MA01;1;no;670;1992;62;138;276;2024-08-22_08h56.49.616;EXNAT_3_fMRI_Psychopy2023.1.3;03.01.23;75.02153538
0;0;0;0;;;;;;;;;;;#D292F3;655.5934889;110.5626318;None;None;None;347.7851506;text_01;280;1;1;1;Reading_Baseline_main_no_click;None;einer;;;;;MA01;1;no;670;1992;62;138;276;2024-08-22_08h56.49.616;EXNAT_3_fMRI_Psychopy2023.1.3;03.01.23;75.02153538
0;0;0;0;;;;;;;;;;;#F989A2;655.9536121;110.922755;None;None;None;359.0890871;text_01;281;1;1;1;Reading_Baseline_main_no_click;None;halben;;;;;MA01;1;no;670;1992;62;138;276;2024-08-22_08h56.49.616;EXNAT_3_fMRI_Psychopy2023.1.3;03.01.23;75.02153538
0;0;0;0;;;;;;;;;;;#D292F3;656.3266189;111.2957618;None;None;None;347.7851506;text_01;282;1;1;1;Reading_Baseline_main_no_click;None;Tonne;;;;;MA01;1;no;670;1992;62;138;276;2024-08-22_08h56.49.616;EXNAT_3_fMRI_Psychopy2023.1.3;03.01.23;75.02153538
0;0;0;0;;;;;;;;;;;#2AB7EF;656.6866641;111.655807;None;None;None;368.6464292;text_01;283;1;1;1;Reading_Baseline_main_no_click;None;Gewicht;;;;;MA01;1;no;670;1992;62;138;276;2024-08-22_08h56.49.616;EXNAT_3_fMRI_Psychopy2023.1.3;03.01.23;75.02153538
0;0;0;0;;;;;;;;;;;#88BA3F;657.059479;112.0286219;None;None;None;316.1139619;text_01;284;1;1;1;Reading_Baseline_main_no_click;None;das;;;;;MA01;1;no;670;1992;62;138;276;2024-08-22_08h56.49.616;EXNAT_3_fMRI_Psychopy2023.1.3;03.01.23;75.02153538
0;0;0;0;;;;;;;;;;;#F989A2;657.3797691;112.348912;None;None;None;359.0890871;text_01;285;1;1;1;Reading_Baseline_main_no_click;None;größte;;;;;MA01;1;no;670;1992;62;138;276;2024-08-22_08h56.49.616;EXNAT_3_fMRI_Psychopy2023.1.3;03.01.23;75.02153538
0;0;0;0;;;;;;;;;;;#D292F3;657.7528501;112.721993;None;None;None;390.7602758;text_01;286;1;1;1;Reading_Baseline_main_no_click;None;wirbellose;;;;;MA01;1;no;670;1992;62;138;276;2024-08-22_08h56.49.616;EXNAT_3_fMRI_Psychopy2023.1.3;03.01.23;75.02153538
0;0;0;0;;;;;;;;;;;#88BA3F;658.1524849;113.1216278;None;None;None;333.9502504;text_01;287;1;1;1;Reading_Baseline_main_no_click;None;Tier;;;;;MA01;1;no;670;1992;62;138;276;2024-08-22_08h56.49.616;EXNAT_3_fMRI_Psychopy2023.1.3;03.01.23;75.02153538
0;0;0;0;;;;;;;;;;;#2AB7EF;658.499084;113.4682269;None;None;None;316.1139619;text_01;288;1;1;1;Reading_Baseline_main_no_click;None;der;;;;;MA01;1;no;670;1992;62;138;276;2024-08-22_08h56.49.616;EXNAT_3_fMRI_Psychopy2023.1.3;03.01.23;75.02153538
0;0;0;0;;;;;;;;;;;#F989A2;658.8194611;113.788604;None;None;None;347.7851506;text_01;289;1;1;1;Reading_Baseline_main_no_click;None;Welt.;;;;;MA01;1;no;670;1992;62;138;276;2024-08-22_08h56.49.616;EXNAT_3_fMRI_Psychopy2023.1.3;03.01.23;75.02153538
0;0;0;0;;;;;;;;;;;#D292F3;659.179002;114.148145;None;None;None;359.0890871;text_01;290;1;1;1;Reading_Baseline_main_no_click;None;Bisher;;;;;MA01;1;no;670;1992;62;138;276;2024-08-22_08h56.49.616;EXNAT_3_fMRI_Psychopy2023.1.3;03.01.23;75.02153538
0;0;0;0;;;;;;;;;;;#F989A2;659.552206;114.521349;None;None;None;347.7851506;text_01;291;1;1;1;Reading_Baseline_main_no_click;None;wurde;;;;;MA01;1;no;670;1992;62;138;276;2024-08-22_08h56.49.616;EXNAT_3_fMRI_Psychopy2023.1.3;03.01.23;75.02153538
0;0;0;0;;;;;;;;;;;#D292F3;659.912101;114.8812439;None;None;None;310;text_01;292;1;1;1;Reading_Baseline_main_no_click;None;er;;;;;MA01;1;no;670;1992;62;138;276;2024-08-22_08h56.49.616;EXNAT_3_fMRI_Psychopy2023.1.3;03.01.23;75.02153538
0;0;0;0;;;;;;;;;;;#2AB7EF;660.2320049;115.2011478;None;None;None;333.9502504;text_01;293;1;1;1;Reading_Baseline_main_no_click;None;aber;;;;;MA01;1;no;670;1992;62;138;276;2024-08-22_08h56.49.616;EXNAT_3_fMRI_Psychopy2023.1.3;03.01.23;75.02153538
0;0;0;0;;;;;;;;;;;#88BA3F;660.578516;115.5476589;None;None;None;333.9502504;text_01;294;1;1;1;Reading_Baseline_main_no_click;None;noch;;;;;MA01;1;no;670;1992;62;138;276;2024-08-22_08h56.49.616;EXNAT_3_fMRI_Psychopy2023.1.3;03.01.23;75.02153538
0;0;0;0;;;;;;;;;;;#88BA3F;660.9250901;115.894233;None;None;None;316.1139619;text_01;295;1;1;1;Reading_Baseline_main_no_click;None;nie;;;;;MA01;1;no;670;1992;62;138;276;2024-08-22_08h56.49.616;EXNAT_3_fMRI_Psychopy2023.1.3;03.01.23;75.02153538
0;0;0;0;;;;;;;;;;;#2AB7EF;661.2452059;116.2143488;None;None;None;384.2279238;text_01;296;1;1;1;Reading_Baseline_main_no_click;None;innerhalb;;;;;MA01;1;no;670;1992;62;138;276;2024-08-22_08h56.49.616;EXNAT_3_fMRI_Psychopy2023.1.3;03.01.23;75.02153538
0;0;0;0;;;;;;;;;;;#F989A2;661.6449471;116.61409;None;None;None;359.0890871;text_01;297;1;1;1;Reading_Baseline_main_no_click;None;seines;;;;;MA01;1;no;670;1992;62;138;276;2024-08-22_08h56.49.616;EXNAT_3_fMRI_Psychopy2023.1.3;03.01.23;75.02153538
0;0;0;0;;;;;;;;;;;#2AB7EF;662.01893;116.9880729;None;None;None;396.6695069;text_01;298;1;1;1;Reading_Baseline_main_no_click;None;natürlichen;;;;;MA01;1;no;670;1992;62;138;276;2024-08-22_08h56.49.616;EXNAT_3_fMRI_Psychopy2023.1.3;03.01.23;75.02153538
0;0;0;0;;;;;;;;;;;#88BA3F;662.4184639;117.3876069;None;None;None;396.6695069;text_01;299;1;1;1;Reading_Baseline_main_no_click;None;Lebensraums;;;;;MA01;1;no;670;1992;62;138;276;2024-08-22_08h56.49.616;EXNAT_3_fMRI_Psychopy2023.1.3;03.01.23;75.02153538
0;0;0;0;;;;;;;;;;;#D292F3;662.817831;117.786974;None;None;None;376.9253756;text_01;300;1;1;1;Reading_Baseline_main_no_click;None;gefilmt.;;;;;MA01;1;no;670;1992;62;138;276;2024-08-22_08h56.49.616;EXNAT_3_fMRI_Psychopy2023.1.3;03.01.23;75.02153538
0;0;0;0;;;;;;;;;;;;663.2496071;118.21875;;;;;text_01;;1;1;1;Reading_Baseline_main_no_click;None;;Q1;1;a;False;MA01;1;no;670;1992;62;138;276;2024-08-22_08h56.49.616;EXNAT_3_fMRI_Psychopy2023.1.3;03.01.23;75.02153538
0;0;0;0;;;;;;;;;;;;673.2807131;128.249856;;;;;text_01;;1;1;1;Reading_Baseline_main_no_click;None;;Q2;4;d;True;MA01;1;no;670;1992;62;138;276;2024-08-22_08h56.49.616;EXNAT_3_fMRI_Psychopy2023.1.3;03.01.23;75.02153538
0;0;0;0;;;;;;;;;;;;683.312007;138.2811499;;;;;text_01;;1;1;1;Reading_Baseline_main_no_click;None;;Q3;1;a;True;MA01;1;no;670;1992;62;138;276;2024-08-22_08h56.49.616;EXNAT_3_fMRI_Psychopy2023.1.3;03.01.23;75.02153538
0;0;0;0;;;;;;;;;;;;;;;;;;;;;;;;;;;;;;MA01;1;no;670;1992;62;138;276;2024-08-22_08h56.49.616;EXNAT_3_fMRI_Psychopy2023.1.3;03.01.23;75.02153538
1;0;1;0;;;;;;;;;;;#2AB7EF;702.141711;157.1108539;None;None;None;316.1139619;pseudo_text_08;1;2;1;2;Reading_pseudotext_no_click;None;Das;;;;;MA01;1;no;670;1992;62;138;276;2024-08-22_08h56.49.616;EXNAT_3_fMRI_Psychopy2023.1.3;03.01.23;75.02153538
1;0;1;0;;;;;;;;;;;#D292F3;702.4724929;157.4416358;None;None;None;411.6215544;pseudo_text_08;2;2;1;2;Reading_pseudotext_no_click;None;rechfigjüntige;;;;;MA01;1;no;670;1992;62;138;276;2024-08-22_08h56.49.616;EXNAT_3_fMRI_Psychopy2023.1.3;03.01.23;75.02153538
1;0;1;0;;;;;;;;;;;#D292F3;702.8983619;157.8675048;None;None;None;411.6215544;pseudo_text_08;3;2;1;2;Reading_pseudotext_no_click;None;Diebstkutitöum;;;;;MA01;1;no;670;1992;62;138;276;2024-08-22_08h56.49.616;EXNAT_3_fMRI_Psychopy2023.1.3;03.01.23;75.02153538
1;0;1;0;;;;;;;;;;;#88BA3F;703.3237679;158.2929108;None;None;None;359.0890871;pseudo_text_08;4;2;1;2;Reading_pseudotext_no_click;None;torrte;;;;;MA01;1;no;670;1992;62;138;276;2024-08-22_08h56.49.616;EXNAT_3_fMRI_Psychopy2023.1.3;03.01.23;75.02153538
1;0;1;0;;;;;;;;;;;#88BA3F;703.6965311;158.665674;None;None;None;316.1139619;pseudo_text_08;5;2;1;2;Reading_pseudotext_no_click;None;ein;;;;;MA01;1;no;670;1992;62;138;276;2024-08-22_08h56.49.616;EXNAT_3_fMRI_Psychopy2023.1.3;03.01.23;75.02153538
1;0;1;0;;;;;;;;;;;#F989A2;704.0172009;158.9863439;None;None;None;347.7851506;pseudo_text_08;6;2;1;2;Reading_pseudotext_no_click;None;Rukes;;;;;MA01;1;no;670;1992;62;138;276;2024-08-22_08h56.49.616;EXNAT_3_fMRI_Psychopy2023.1.3;03.01.23;75.02153538
1;0;1;0;;;;;;;;;;;#88BA3F;704.376205;159.3453479;None;None;None;310;pseudo_text_08;7;2;1;2;Reading_pseudotext_no_click;None;am;;;;;MA01;1;no;670;1992;62;138;276;2024-08-22_08h56.49.616;EXNAT_3_fMRI_Psychopy2023.1.3;03.01.23;75.02153538
1;0;1;0;;;;;;;;;;;#F989A2;704.696825;159.6659679;None;None;None;376.9253756;pseudo_text_08;8;2;1;2;Reading_pseudotext_no_click;None;Sodenlau;;;;;MA01;1;no;670;1992;62;138;276;2024-08-22_08h56.49.616;EXNAT_3_fMRI_Psychopy2023.1.3;03.01.23;75.02153538
1;0;1;0;;;;;;;;;;;#2AB7EF;705.0830231;160.052166;None;None;None;368.6464292;pseudo_text_08;9;2;1;2;Reading_pseudotext_no_click;None;seieln,;;;;;MA01;1;no;670;1992;62;138;276;2024-08-22_08h56.49.616;EXNAT_3_fMRI_Psychopy2023.1.3;03.01.23;75.02153538
1;0;1;0;;;;;;;;;;;#D292F3;705.4563749;160.4255178;None;None;None;368.6464292;pseudo_text_08;10;2;1;2;Reading_pseudotext_no_click;None;welcher;;;;;MA01;1;no;670;1992;62;138;276;2024-08-22_08h56.49.616;EXNAT_3_fMRI_Psychopy2023.1.3;03.01.23;75.02153538
1;0;1;0;;;;;;;;;;;#2AB7EF;705.8291931;160.798336;None;None;None;333.9502504;pseudo_text_08;11;2;1;2;Reading_pseudotext_no_click;None;leit;;;;;MA01;1;no;670;1992;62;138;276;2024-08-22_08h56.49.616;EXNAT_3_fMRI_Psychopy2023.1.3;03.01.23;75.02153538
1;0;1;0;;;;;;;;;;;#F989A2;706.1758101;161.144953;None;None;None;347.7851506;pseudo_text_08;12;2;1;2;Reading_pseudotext_no_click;None;jehes;;;;;MA01;1;no;670;1992;62;138;276;2024-08-22_08h56.49.616;EXNAT_3_fMRI_Psychopy2023.1.3;03.01.23;75.02153538
1;0;1;0;;;;;;;;;;;#D292F3;706.5359011;161.505044;None;None;None;390.7602758;pseudo_text_08;13;2;1;2;Reading_pseudotext_no_click;None;zackheiche;;;;;MA01;1;no;670;1992;62;138;276;2024-08-22_08h56.49.616;EXNAT_3_fMRI_Psychopy2023.1.3;03.01.23;75.02153538
1;0;1;0;;;;;;;;;;;#D292F3;706.9359751;161.905118;None;None;None;402.0642123;pseudo_text_08;14;2;1;2;Reading_pseudotext_no_click;None;Ganleibische;;;;;MA01;1;no;670;1992;62;138;276;2024-08-22_08h56.49.616;EXNAT_3_fMRI_Psychopy2023.1.3;03.01.23;75.02153538
1;0;1;0;;;;;;;;;;;#F989A2;707.3488541;162.317997;None;None;None;316.1139619;pseudo_text_08;15;2;1;2;Reading_pseudotext_no_click;None;mit;;;;;MA01;1;no;670;1992;62;138;276;2024-08-22_08h56.49.616;EXNAT_3_fMRI_Psychopy2023.1.3;03.01.23;75.02153538
1;0;1;0;;;;;;;;;;;#D292F3;707.668596;162.6377389;None;None;None;359.0890871;pseudo_text_08;16;2;1;2;Reading_pseudotext_no_click;None;seisen;;;;;MA01;1;no;670;1992;62;138;276;2024-08-22_08h56.49.616;EXNAT_3_fMRI_Psychopy2023.1.3;03.01.23;75.02153538
1;0;1;0;;;;;;;;;;;#F989A2;708.042129;163.011272;None;None;None;390.7602758;pseudo_text_08;17;2;1;2;Reading_pseudotext_no_click;None;lediänalen;;;;;MA01;1;no;670;1992;62;138;276;2024-08-22_08h56.49.616;EXNAT_3_fMRI_Psychopy2023.1.3;03.01.23;75.02153538
1;0;1;0;;;;;;;;;;;#88BA3F;708.4426529;163.4117959;None;None;None;427.203049;pseudo_text_08;18;2;1;2;Reading_pseudotext_no_click;None;Miemenerzeugnissen;;;;;MA01;1;no;670;1992;62;138;276;2024-08-22_08h56.49.616;EXNAT_3_fMRI_Psychopy2023.1.3;03.01.23;75.02153538
1;0;1;0;;;;;;;;;;;#D292F3;708.882494;163.8516369;None;None;None;384.2279238;pseudo_text_08;19;2;1;2;Reading_pseudotext_no_click;None;versäugt.;;;;;MA01;1;no;670;1992;62;138;276;2024-08-22_08h56.49.616;EXNAT_3_fMRI_Psychopy2023.1.3;03.01.23;75.02153538
1;0;1;0;;;;;;;;;;;#2AB7EF;709.2812719;164.2504148;None;None;None;347.7851506;pseudo_text_08;20;2;1;2;Reading_pseudotext_no_click;None;Gicht;;;;;MA01;1;no;670;1992;62;138;276;2024-08-22_08h56.49.616;EXNAT_3_fMRI_Psychopy2023.1.3;03.01.23;75.02153538
1;0;1;0;;;;;;;;;;;#2AB7EF;709.641196;164.6103389;None;None;None;316.1139619;pseudo_text_08;21;2;1;2;Reading_pseudotext_no_click;None;hor;;;;;MA01;1;no;670;1992;62;138;276;2024-08-22_08h56.49.616;EXNAT_3_fMRI_Psychopy2023.1.3;03.01.23;75.02153538
1;0;1;0;;;;;;;;;;;#88BA3F;709.9613249;164.9304678;None;None;None;359.0890871;pseudo_text_08;22;2;1;2;Reading_pseudotext_no_click;None;zauten;;;;;MA01;1;no;670;1992;62;138;276;2024-08-22_08h56.49.616;EXNAT_3_fMRI_Psychopy2023.1.3;03.01.23;75.02153538
1;0;1;0;;;;;;;;;;;#F989A2;710.3342221;165.303365;None;None;None;347.7851506;pseudo_text_08;23;2;1;2;Reading_pseudotext_no_click;None;seise;;;;;MA01;1;no;670;1992;62;138;276;2024-08-22_08h56.49.616;EXNAT_3_fMRI_Psychopy2023.1.3;03.01.23;75.02153538
1;0;1;0;;;;;;;;;;;#88BA3F;710.694768;165.6639109;None;None;None;402.0642123;pseudo_text_08;24;2;1;2;Reading_pseudotext_no_click;None;Miemenvölker;;;;;MA01;1;no;670;1992;62;138;276;2024-08-22_08h56.49.616;EXNAT_3_fMRI_Psychopy2023.1.3;03.01.23;75.02153538
1;0;1;0;;;;;;;;;;;#88BA3F;711.1072359;166.0763788;None;None;None;333.9502504;pseudo_text_08;25;2;1;2;Reading_pseudotext_no_click;None;eine;;;;;MA01;1;no;670;1992;62;138;276;2024-08-22_08h56.49.616;EXNAT_3_fMRI_Psychopy2023.1.3;03.01.23;75.02153538
1;0;1;0;;;;;;;;;;;#F989A2;711.454138;166.423281;None;None;None;384.2279238;pseudo_text_08;26;2;1;2;Reading_pseudotext_no_click;None;verrheite;;;;;MA01;1;no;670;1992;62;138;276;2024-08-22_08h56.49.616;EXNAT_3_fMRI_Psychopy2023.1.3;03.01.23;75.02153538
1;0;1;0;;;;;;;;;;;#F989A2;711.854341;166.8234839;None;None;None;376.9253756;pseudo_text_08;27;2;1;2;Reading_pseudotext_no_click;None;Quemerie;;;;;MA01;1;no;670;1992;62;138;276;2024-08-22_08h56.49.616;EXNAT_3_fMRI_Psychopy2023.1.3;03.01.23;75.02153538
1;0;1;0;;;;;;;;;;;#F989A2;712.2401581;167.209301;None;None;None;310;pseudo_text_08;28;2;1;2;Reading_pseudotext_no_click;None;in;;;;;MA01;1;no;670;1992;62;138;276;2024-08-22_08h56.49.616;EXNAT_3_fMRI_Psychopy2023.1.3;03.01.23;75.02153538
1;0;1;0;;;;;;;;;;;#F989A2;712.5600021;167.529145;None;None;None;316.1139619;pseudo_text_08;29;2;1;2;Reading_pseudotext_no_click;None;den;;;;;MA01;1;no;670;1992;62;138;276;2024-08-22_08h56.49.616;EXNAT_3_fMRI_Psychopy2023.1.3;03.01.23;75.02153538
1;0;1;0;;;;;;;;;;;#D292F3;712.880429;167.8495719;None;None;None;396.6695069;pseudo_text_08;30;2;1;2;Reading_pseudotext_no_click;None;ermautenden;;;;;MA01;1;no;670;1992;62;138;276;2024-08-22_08h56.49.616;EXNAT_3_fMRI_Psychopy2023.1.3;03.01.23;75.02153538
1;0;1;0;;;;;;;;;;;#D292F3;713.2801421;168.249285;None;None;None;359.0890871;pseudo_text_08;31;2;1;2;Reading_pseudotext_no_click;None;Mausen;;;;;MA01;1;no;670;1992;62;138;276;2024-08-22_08h56.49.616;EXNAT_3_fMRI_Psychopy2023.1.3;03.01.23;75.02153538
1;0;1;0;;;;;;;;;;;#2AB7EF;713.652957;168.6220999;None;None;None;316.1139619;pseudo_text_08;32;2;1;2;Reading_pseudotext_no_click;None;und;;;;;MA01;1;no;670;1992;62;138;276;2024-08-22_08h56.49.616;EXNAT_3_fMRI_Psychopy2023.1.3;03.01.23;75.02153538
1;0;1;0;;;;;;;;;;;#2AB7EF;713.9739051;168.943048;None;None;None;376.9253756;pseudo_text_08;33;2;1;2;Reading_pseudotext_no_click;None;Feppern,;;;;;MA01;1;no;670;1992;62;138;276;2024-08-22_08h56.49.616;EXNAT_3_fMRI_Psychopy2023.1.3;03.01.23;75.02153538
1;0;1;0;;;;;;;;;;;#2AB7EF;714.3595691;169.328712;None;None;None;368.6464292;pseudo_text_08;34;2;1;2;Reading_pseudotext_no_click;None;zündern;;;;;MA01;1;no;670;1992;62;138;276;2024-08-22_08h56.49.616;EXNAT_3_fMRI_Psychopy2023.1.3;03.01.23;75.02153538
1;0;1;0;;;;;;;;;;;#88BA3F;714.7325881;169.701731;None;None;None;333.9502504;pseudo_text_08;35;2;1;2;Reading_pseudotext_no_click;None;eich;;;;;MA01;1;no;670;1992;62;138;276;2024-08-22_08h56.49.616;EXNAT_3_fMRI_Psychopy2023.1.3;03.01.23;75.02153538
1;0;1;0;;;;;;;;;;;#D292F3;715.079159;170.0483019;None;None;None;333.9502504;pseudo_text_08;36;2;1;2;Reading_pseudotext_no_click;None;seis;;;;;MA01;1;no;670;1992;62;138;276;2024-08-22_08h56.49.616;EXNAT_3_fMRI_Psychopy2023.1.3;03.01.23;75.02153538
1;0;1;0;;;;;;;;;;;#F989A2;715.426441;170.3955839;None;None;None;390.7602758;pseudo_text_08;37;2;1;2;Reading_pseudotext_no_click;None;Komigstand;;;;;MA01;1;no;670;1992;62;138;276;2024-08-22_08h56.49.616;EXNAT_3_fMRI_Psychopy2023.1.3;03.01.23;75.02153538
1;0;1;0;;;;;;;;;;;#D292F3;715.8260219;170.7951648;None;None;None;316.1139619;pseudo_text_08;38;2;1;2;Reading_pseudotext_no_click;None;auf;;;;;MA01;1;no;670;1992;62;138;276;2024-08-22_08h56.49.616;EXNAT_3_fMRI_Psychopy2023.1.3;03.01.23;75.02153538
1;0;1;0;;;;;;;;;;;#2AB7EF;716.145463;171.1146059;None;None;None;316.1139619;pseudo_text_08;39;2;1;2;Reading_pseudotext_no_click;None;dem;;;;;MA01;1;no;670;1992;62;138;276;2024-08-22_08h56.49.616;EXNAT_3_fMRI_Psychopy2023.1.3;03.01.23;75.02153538
1;0;1;0;;;;;;;;;;;#2AB7EF;716.465631;171.4347739;None;None;None;384.2279238;pseudo_text_08;40;2;1;2;Reading_pseudotext_no_click;None;orthachen;;;;;MA01;1;no;670;1992;62;138;276;2024-08-22_08h56.49.616;EXNAT_3_fMRI_Psychopy2023.1.3;03.01.23;75.02153538
1;0;1;0;;;;;;;;;;;#88BA3F;716.8528581;171.822001;None;None;None;396.6695069;pseudo_text_08;41;2;1;2;Reading_pseudotext_no_click;None;Wiiernmapps;;;;;MA01;1;no;670;1992;62;138;276;2024-08-22_08h56.49.616;EXNAT_3_fMRI_Psychopy2023.1.3;03.01.23;75.02153538
1;0;1;0;;;;;;;;;;;#D292F3;717.251864;172.2210069;None;None;None;316.1139619;pseudo_text_08;42;2;1;2;Reading_pseudotext_no_click;None;ost;;;;;MA01;1;no;670;1992;62;138;276;2024-08-22_08h56.49.616;EXNAT_3_fMRI_Psychopy2023.1.3;03.01.23;75.02153538
1;0;1;0;;;;;;;;;;;#F989A2;717.571609;172.5407519;None;None;None;316.1139619;pseudo_text_08;43;2;1;2;Reading_pseudotext_no_click;None;ein;;;;;MA01;1;no;670;1992;62;138;276;2024-08-22_08h56.49.616;EXNAT_3_fMRI_Psychopy2023.1.3;03.01.23;75.02153538
1;0;1;0;;;;;;;;;;;#D292F3;717.891737;172.8608799;None;None;None;384.2279238;pseudo_text_08;44;2;1;2;Reading_pseudotext_no_click;None;bebaubter;;;;;MA01;1;no;670;1992;62;138;276;2024-08-22_08h56.49.616;EXNAT_3_fMRI_Psychopy2023.1.3;03.01.23;75.02153538
1;0;1;0;;;;;;;;;;;#F989A2;718.2789011;173.248044;None;None;None;390.7602758;pseudo_text_08;45;2;1;2;Reading_pseudotext_no_click;None;Troffbruch;;;;;MA01;1;no;670;1992;62;138;276;2024-08-22_08h56.49.616;EXNAT_3_fMRI_Psychopy2023.1.3;03.01.23;75.02153538
1;0;1;0;;;;;;;;;;;#88BA3F;718.678185;173.6473279;None;None;None;316.1139619;pseudo_text_08;46;2;1;2;Reading_pseudotext_no_click;None;bei;;;;;MA01;1;no;670;1992;62;138;276;2024-08-22_08h56.49.616;EXNAT_3_fMRI_Psychopy2023.1.3;03.01.23;75.02153538
1;0;1;0;;;;;;;;;;;#88BA3F;718.997921;173.9670639;None;None;None;359.0890871;pseudo_text_08;47;2;1;2;Reading_pseudotext_no_click;None;beiden;;;;;MA01;1;no;670;1992;62;138;276;2024-08-22_08h56.49.616;EXNAT_3_fMRI_Psychopy2023.1.3;03.01.23;75.02153538
1;0;1;0;;;;;;;;;;;#2AB7EF;719.3717699;174.3409128;None;None;None;396.6695069;pseudo_text_08;48;2;1;2;Reading_pseudotext_no_click;None;Einwöpfern.;;;;;MA01;1;no;670;1992;62;138;276;2024-08-22_08h56.49.616;EXNAT_3_fMRI_Psychopy2023.1.3;03.01.23;75.02153538
1;0;1;0;;;;;;;;;;;#F989A2;719.7712741;174.740417;None;None;None;333.9502504;pseudo_text_08;49;2;1;2;Reading_pseudotext_no_click;None;Hiel;;;;;MA01;1;no;670;1992;62;138;276;2024-08-22_08h56.49.616;EXNAT_3_fMRI_Psychopy2023.1.3;03.01.23;75.02153538
1;0;1;0;;;;;;;;;;;#88BA3F;720.1174829;175.0866258;None;None;None;359.0890871;pseudo_text_08;50;2;1;2;Reading_pseudotext_no_click;None;zautet;;;;;MA01;1;no;670;1992;62;138;276;2024-08-22_08h56.49.616;EXNAT_3_fMRI_Psychopy2023.1.3;03.01.23;75.02153538
1;0;1;0;;;;;;;;;;;#D292F3;720.4905059;175.4596488;None;None;None;310;pseudo_text_08;51;2;1;2;Reading_pseudotext_no_click;None;se;;;;;MA01;1;no;670;1992;62;138;276;2024-08-22_08h56.49.616;EXNAT_3_fMRI_Psychopy2023.1.3;03.01.23;75.02153538
1;0;1;0;;;;;;;;;;;#F989A2;720.8105431;175.779686;None;None;None;347.7851506;pseudo_text_08;52;2;1;2;Reading_pseudotext_no_click;None;seise;;;;;MA01;1;no;670;1992;62;138;276;2024-08-22_08h56.49.616;EXNAT_3_fMRI_Psychopy2023.1.3;03.01.23;75.02153538
1;0;1;0;;;;;;;;;;;#D292F3;721.1708751;176.140018;None;None;None;347.7851506;pseudo_text_08;53;2;1;2;Reading_pseudotext_no_click;None;bäßen;;;;;MA01;1;no;670;1992;62;138;276;2024-08-22_08h56.49.616;EXNAT_3_fMRI_Psychopy2023.1.3;03.01.23;75.02153538
1;0;1;0;;;;;;;;;;;#2AB7EF;721.5307319;176.4998748;None;None;None;411.6215544;pseudo_text_08;54;2;1;2;Reading_pseudotext_no_click;None;Girmlichkeiten;;;;;MA01;1;no;670;1992;62;138;276;2024-08-22_08h56.49.616;EXNAT_3_fMRI_Psychopy2023.1.3;03.01.23;75.02153538
1;0;1;0;;;;;;;;;;;#88BA3F;721.956672;176.9258149;None;None;None;316.1139619;pseudo_text_08;55;2;1;2;Reading_pseudotext_no_click;None;an,;;;;;MA01;1;no;670;1992;62;138;276;2024-08-22_08h56.49.616;EXNAT_3_fMRI_Psychopy2023.1.3;03.01.23;75.02153538
1;0;1;0;;;;;;;;;;;#D292F3;722.276607;177.24575;None;None;None;316.1139619;pseudo_text_08;56;2;1;2;Reading_pseudotext_no_click;None;und;;;;;MA01;1;no;670;1992;62;138;276;2024-08-22_08h56.49.616;EXNAT_3_fMRI_Psychopy2023.1.3;03.01.23;75.02153538
1;0;1;0;;;;;;;;;;;#D292F3;722.596678;177.5658209;None;None;None;347.7851506;pseudo_text_08;57;2;1;2;Reading_pseudotext_no_click;None;keilt;;;;;MA01;1;no;670;1992;62;138;276;2024-08-22_08h56.49.616;EXNAT_3_fMRI_Psychopy2023.1.3;03.01.23;75.02153538
1;0;1;0;;;;;;;;;;;#F989A2;722.9564109;177.9255538;None;None;None;316.1139619;pseudo_text_08;58;2;1;2;Reading_pseudotext_no_click;None;mit;;;;;MA01;1;no;670;1992;62;138;276;2024-08-22_08h56.49.616;EXNAT_3_fMRI_Psychopy2023.1.3;03.01.23;75.02153538
1;0;1;0;;;;;;;;;;;#2AB7EF;723.2762289;178.2453718;None;None;None;316.1139619;pseudo_text_08;59;2;1;2;Reading_pseudotext_no_click;None;den;;;;;MA01;1;no;670;1992;62;138;276;2024-08-22_08h56.49.616;EXNAT_3_fMRI_Psychopy2023.1.3;03.01.23;75.02153538
1;0;1;0;;;;;;;;;;;#2AB7EF;723.596607;178.5657499;None;None;None;376.9253756;pseudo_text_08;60;2;1;2;Reading_pseudotext_no_click;None;Känschen;;;;;MA01;1;no;670;1992;62;138;276;2024-08-22_08h56.49.616;EXNAT_3_fMRI_Psychopy2023.1.3;03.01.23;75.02153538
1;0;1;0;;;;;;;;;;;#88BA3F;723.9827659;178.9519088;None;None;None;347.7851506;pseudo_text_08;61;2;1;2;Reading_pseudotext_no_click;None;seise;;;;;MA01;1;no;670;1992;62;138;276;2024-08-22_08h56.49.616;EXNAT_3_fMRI_Psychopy2023.1.3;03.01.23;75.02153538
1;0;1;0;;;;;;;;;;;#2AB7EF;724.3427761;179.311919;None;None;None;402.0642123;pseudo_text_08;62;2;1;2;Reading_pseudotext_no_click;None;Geidelstraft;;;;;MA01;1;no;670;1992;62;138;276;2024-08-22_08h56.49.616;EXNAT_3_fMRI_Psychopy2023.1.3;03.01.23;75.02153538
1;0;1;0;;;;;;;;;;;#2AB7EF;724.755955;179.7250979;None;None;None;316.1139619;pseudo_text_08;63;2;1;2;Reading_pseudotext_no_click;None;für;;;;;MA01;1;no;670;1992;62;138;276;2024-08-22_08h56.49.616;EXNAT_3_fMRI_Psychopy2023.1.3;03.01.23;75.02153538
1;0;1;0;;;;;;;;;;;#2AB7EF;725.075608;180.0447509;None;None;None;316.1139619;pseudo_text_08;64;2;1;2;Reading_pseudotext_no_click;None;die;;;;;MA01;1;no;670;1992;62;138;276;2024-08-22_08h56.49.616;EXNAT_3_fMRI_Psychopy2023.1.3;03.01.23;75.02153538
1;0;1;0;;;;;;;;;;;#F989A2;725.3956339;180.3647768;None;None;None;368.6464292;pseudo_text_08;65;2;1;2;Reading_pseudotext_no_click;None;Rukesei;;;;;MA01;1;no;670;1992;62;138;276;2024-08-22_08h56.49.616;EXNAT_3_fMRI_Psychopy2023.1.3;03.01.23;75.02153538
1;0;1;0;;;;;;;;;;;#88BA3F;725.7688079;180.7379508;None;None;None;316.1139619;pseudo_text_08;66;2;1;2;Reading_pseudotext_no_click;None;und;;;;;MA01;1;no;670;1992;62;138;276;2024-08-22_08h56.49.616;EXNAT_3_fMRI_Psychopy2023.1.3;03.01.23;75.02153538
1;0;1;0;;;;;;;;;;;#88BA3F;726.088563;181.0577059;None;None;None;316.1139619;pseudo_text_08;67;2;1;2;Reading_pseudotext_no_click;None;die;;;;;MA01;1;no;670;1992;62;138;276;2024-08-22_08h56.49.616;EXNAT_3_fMRI_Psychopy2023.1.3;03.01.23;75.02153538
1;0;1;0;;;;;;;;;;;#D292F3;726.408685;181.3778279;None;None;None;384.2279238;pseudo_text_08;68;2;1;2;Reading_pseudotext_no_click;None;Schüsheit;;;;;MA01;1;no;670;1992;62;138;276;2024-08-22_08h56.49.616;EXNAT_3_fMRI_Psychopy2023.1.3;03.01.23;75.02153538
1;0;1;0;;;;;;;;;;;#88BA3F;726.794966;181.7641089;None;None;None;316.1139619;pseudo_text_08;69;2;1;2;Reading_pseudotext_no_click;None;der;;;;;MA01;1;no;670;1992;62;138;276;2024-08-22_08h56.49.616;EXNAT_3_fMRI_Psychopy2023.1.3;03.01.23;75.02153538
1;0;1;0;;;;;;;;;;;#88BA3F;727.115598;182.0847409;None;None;None;359.0890871;pseudo_text_08;70;2;1;2;Reading_pseudotext_no_click;None;Zagur.;;;;;MA01;1;no;670;1992;62;138;276;2024-08-22_08h56.49.616;EXNAT_3_fMRI_Psychopy2023.1.3;03.01.23;75.02153538
1;0;1;0;;;;;;;;;;;#D292F3;727.488312;182.4574549;None;None;None;368.6464292;pseudo_text_08;71;2;1;2;Reading_pseudotext_no_click;None;Donöber;;;;;MA01;1;no;670;1992;62;138;276;2024-08-22_08h56.49.616;EXNAT_3_fMRI_Psychopy2023.1.3;03.01.23;75.02153538
1;0;1;0;;;;;;;;;;;#F989A2;727.861702;182.8308449;None;None;None;359.0890871;pseudo_text_08;72;2;1;2;Reading_pseudotext_no_click;None;horaus;;;;;MA01;1;no;670;1992;62;138;276;2024-08-22_08h56.49.616;EXNAT_3_fMRI_Psychopy2023.1.3;03.01.23;75.02153538
1;0;1;0;;;;;;;;;;;#2AB7EF;728.23511;183.204253;None;None;None;384.2279238;pseudo_text_08;73;2;1;2;Reading_pseudotext_no_click;None;ehvagielt;;;;;MA01;1;no;670;1992;62;138;276;2024-08-22_08h56.49.616;EXNAT_3_fMRI_Psychopy2023.1.3;03.01.23;75.02153538
1;0;1;0;;;;;;;;;;;#F989A2;728.6344559;183.6035988;None;None;None;310;pseudo_text_08;74;2;1;2;Reading_pseudotext_no_click;None;se;;;;;MA01;1;no;670;1992;62;138;276;2024-08-22_08h56.49.616;EXNAT_3_fMRI_Psychopy2023.1.3;03.01.23;75.02153538
1;0;1;0;;;;;;;;;;;#F989A2;728.954335;183.9234779;None;None;None;333.9502504;pseudo_text_08;75;2;1;2;Reading_pseudotext_no_click;None;sech;;;;;MA01;1;no;670;1992;62;138;276;2024-08-22_08h56.49.616;EXNAT_3_fMRI_Psychopy2023.1.3;03.01.23;75.02153538
1;0;1;0;;;;;;;;;;;#88BA3F;729.3010719;184.2702148;None;None;None;347.7851506;pseudo_text_08;76;2;1;2;Reading_pseudotext_no_click;None;amtiz;;;;;MA01;1;no;670;1992;62;138;276;2024-08-22_08h56.49.616;EXNAT_3_fMRI_Psychopy2023.1.3;03.01.23;75.02153538
1;0;1;0;;;;;;;;;;;#D292F3;729.6610489;184.6301918;None;None;None;310;pseudo_text_08;77;2;1;2;Reading_pseudotext_no_click;None;im;;;;;MA01;1;no;670;1992;62;138;276;2024-08-22_08h56.49.616;EXNAT_3_fMRI_Psychopy2023.1.3;03.01.23;75.02153538
1;0;1;0;;;;;;;;;;;#D292F3;729.981329;184.9504719;None;None;None;368.6464292;pseudo_text_08;78;2;1;2;Reading_pseudotext_no_click;None;mokolen;;;;;MA01;1;no;670;1992;62;138;276;2024-08-22_08h56.49.616;EXNAT_3_fMRI_Psychopy2023.1.3;03.01.23;75.02153538
1;0;1;0;;;;;;;;;;;#F989A2;730.354511;185.3236539;None;None;None;396.6695069;pseudo_text_08;79;2;1;2;Reading_pseudotext_no_click;None;Zagurerwind;;;;;MA01;1;no;670;1992;62;138;276;2024-08-22_08h56.49.616;EXNAT_3_fMRI_Psychopy2023.1.3;03.01.23;75.02153538
1;0;1;0;;;;;;;;;;;#D292F3;730.7541909;185.7233338;None;None;None;316.1139619;pseudo_text_08;80;2;1;2;Reading_pseudotext_no_click;None;und;;;;;MA01;1;no;670;1992;62;138;276;2024-08-22_08h56.49.616;EXNAT_3_fMRI_Psychopy2023.1.3;03.01.23;75.02153538
1;0;1;0;;;;;;;;;;;#2AB7EF;731.073988;186.0431309;None;None;None;376.9253756;pseudo_text_08;81;2;1;2;Reading_pseudotext_no_click;None;fläbiert;;;;;MA01;1;no;670;1992;62;138;276;2024-08-22_08h56.49.616;EXNAT_3_fMRI_Psychopy2023.1.3;03.01.23;75.02153538
1;0;1;0;;;;;;;;;;;#88BA3F;731.4607911;186.429934;None;None;None;390.7602758;pseudo_text_08;82;2;1;2;Reading_pseudotext_no_click;None;regelgäpod;;;;;MA01;1;no;670;1992;62;138;276;2024-08-22_08h56.49.616;EXNAT_3_fMRI_Psychopy2023.1.3;03.01.23;75.02153538
1;0;1;0;;;;;;;;;;;#88BA3F;731.8602531;186.829396;None;None;None;390.7602758;pseudo_text_08;83;2;1;2;Reading_pseudotext_no_click;None;ärlendlich;;;;;MA01;1;no;670;1992;62;138;276;2024-08-22_08h56.49.616;EXNAT_3_fMRI_Psychopy2023.1.3;03.01.23;75.02153538
1;0;1;0;;;;;;;;;;;#F989A2;732.260118;187.2292609;None;None;None;347.7851506;pseudo_text_08;84;2;1;2;Reading_pseudotext_no_click;None;bemen;;;;;MA01;1;no;670;1992;62;138;276;2024-08-22_08h56.49.616;EXNAT_3_fMRI_Psychopy2023.1.3;03.01.23;75.02153538
1;0;1;0;;;;;;;;;;;#D292F3;732.619823;187.5889659;None;None;None;316.1139619;pseudo_text_08;85;2;1;2;Reading_pseudotext_no_click;None;die;;;;;MA01;1;no;670;1992;62;138;276;2024-08-22_08h56.49.616;EXNAT_3_fMRI_Psychopy2023.1.3;03.01.23;75.02153538
1;0;1;0;;;;;;;;;;;#2AB7EF;732.940459;187.9096019;None;None;None;390.7602758;pseudo_text_08;86;2;1;2;Reading_pseudotext_no_click;None;Ausdesfuhr;;;;;MA01;1;no;670;1992;62;138;276;2024-08-22_08h56.49.616;EXNAT_3_fMRI_Psychopy2023.1.3;03.01.23;75.02153538
1;0;1;0;;;;;;;;;;;#2AB7EF;733.3417289;188.3108718;None;None;None;316.1139619;pseudo_text_08;87;2;1;2;Reading_pseudotext_no_click;None;der;;;;;MA01;1;no;670;1992;62;138;276;2024-08-22_08h56.49.616;EXNAT_3_fMRI_Psychopy2023.1.3;03.01.23;75.02153538
1;0;1;0;;;;;;;;;;;#88BA3F;733.6740921;188.643235;None;None;None;359.0890871;pseudo_text_08;88;2;1;2;Reading_pseudotext_no_click;None;Zagur.;;;;;MA01;1;no;670;1992;62;138;276;2024-08-22_08h56.49.616;EXNAT_3_fMRI_Psychopy2023.1.3;03.01.23;75.02153538
1;0;1;0;;;;;;;;;;;#88BA3F;734.0462639;189.0154068;None;None;None;347.7851506;pseudo_text_08;89;2;1;2;Reading_pseudotext_no_click;None;Seise;;;;;MA01;1;no;670;1992;62;138;276;2024-08-22_08h56.49.616;EXNAT_3_fMRI_Psychopy2023.1.3;03.01.23;75.02153538
1;0;1;0;;;;;;;;;;;#F989A2;734.4063101;189.375453;None;None;None;359.0890871;pseudo_text_08;90;2;1;2;Reading_pseudotext_no_click;None;Wudeit;;;;;MA01;1;no;670;1992;62;138;276;2024-08-22_08h56.49.616;EXNAT_3_fMRI_Psychopy2023.1.3;03.01.23;75.02153538
1;0;1;0;;;;;;;;;;;#88BA3F;734.7790079;189.7481508;None;None;None;347.7851506;pseudo_text_08;91;2;1;2;Reading_pseudotext_no_click;None;stöht;;;;;MA01;1;no;670;1992;62;138;276;2024-08-22_08h56.49.616;EXNAT_3_fMRI_Psychopy2023.1.3;03.01.23;75.02153538
1;0;1;0;;;;;;;;;;;#F989A2;735.1392751;190.108418;None;None;None;402.0642123;pseudo_text_08;92;2;1;2;Reading_pseudotext_no_click;None;beifreilkaft;;;;;MA01;1;no;670;1992;62;138;276;2024-08-22_08h56.49.616;EXNAT_3_fMRI_Psychopy2023.1.3;03.01.23;75.02153538
1;0;1;0;;;;;;;;;;;#2AB7EF;735.5520909;190.5212338;None;None;None;316.1139619;pseudo_text_08;93;2;1;2;Reading_pseudotext_no_click;None;für;;;;;MA01;1;no;670;1992;62;138;276;2024-08-22_08h56.49.616;EXNAT_3_fMRI_Psychopy2023.1.3;03.01.23;75.02153538
1;0;1;0;;;;;;;;;;;#D292F3;735.872175;190.8413179;None;None;None;347.7851506;pseudo_text_08;94;2;1;2;Reading_pseudotext_no_click;None;einen;;;;;MA01;1;no;670;1992;62;138;276;2024-08-22_08h56.49.616;EXNAT_3_fMRI_Psychopy2023.1.3;03.01.23;75.02153538
1;0;1;0;;;;;;;;;;;#D292F3;736.2325001;191.201643;None;None;None;419.9005008;pseudo_text_08;95;2;1;2;Reading_pseudotext_no_click;None;zerplamtizischen;;;;;MA01;1;no;670;1992;62;138;276;2024-08-22_08h56.49.616;EXNAT_3_fMRI_Psychopy2023.1.3;03.01.23;75.02153538
1;0;1;0;;;;;;;;;;;#F989A2;736.6592669;191.6284099;None;None;None;376.9253756;pseudo_text_08;96;2;1;2;Reading_pseudotext_no_click;None;Einplahn;;;;;MA01;1;no;670;1992;62;138;276;2024-08-22_08h56.49.616;EXNAT_3_fMRI_Psychopy2023.1.3;03.01.23;75.02153538
1;0;1;0;;;;;;;;;;;#2AB7EF;737.0451131;192.014256;None;None;None;316.1139619;pseudo_text_08;97;2;1;2;Reading_pseudotext_no_click;None;von;;;;;MA01;1;no;670;1992;62;138;276;2024-08-22_08h56.49.616;EXNAT_3_fMRI_Psychopy2023.1.3;03.01.23;75.02153538
1;0;1;0;;;;;;;;;;;#D292F3;737.3651011;192.334244;None;None;None;359.0890871;pseudo_text_08;98;2;1;2;Reading_pseudotext_no_click;None;Känsch;;;;;MA01;1;no;670;1992;62;138;276;2024-08-22_08h56.49.616;EXNAT_3_fMRI_Psychopy2023.1.3;03.01.23;75.02153538
1;0;1;0;;;;;;;;;;;#F989A2;737.7378869;192.7070298;None;None;None;316.1139619;pseudo_text_08;99;2;1;2;Reading_pseudotext_no_click;None;und;;;;;MA01;1;no;670;1992;62;138;276;2024-08-22_08h56.49.616;EXNAT_3_fMRI_Psychopy2023.1.3;03.01.23;75.02153538
