loop_run1_single_reading.thisRepN,loop_run1_single_reading.thisTrialN,loop_run1_single_reading.thisN,loop_run1_single_reading.thisIndex,loop_run2_single_nback.thisRepN,loop_run2_single_nback.thisTrialN,loop_run2_single_nback.thisN,loop_run2_single_nback.thisIndex,loop_dual_task_blocks.thisRepN,loop_dual_task_blocks.thisTrialN,loop_dual_task_blocks.thisN,loop_dual_task_blocks.thisIndex,TriggerCount,TriggerTime,colour,global_onset_time,onset_time_rel2trigger,target,nback_response,nback_RT,duration,text_nr,trial_nr,block_nr_exp,run_nr,block_nr_run,block_name,n-back_level,word,question,button_pressed,chosen_ans,ans_correct,participant,session,testing_mode,RT_per_rectangle_oneback_single,RT_per_rectangle_twoback_single,RT_per_letter_baseline,RT_per_letter_oneback_dual,RT_per_letter_twoback_dual,date,expName,psychopyVersion,frameRate,
0,0,0,0,,,,,,,,,1,766.0148720741272,#88BA3F,776.868940114975,10.854068040847778,None,None,None,1320.5405827650404,text_03,1,1,1,1,Reading_Baseline_main_no_click,None,Sie,,,,,OA02,001,no,1500,2000,259,338,424,2024-08-26_08h51.13.528,EXNAT_3_fMRI_Psychopy2023.1.3,2023.1.3,74.99175758355952,
0,0,0,0,,,,,,,,,,,#88BA3F,778.1991860866547,12.184314012527466,None,None,None,1500.0,text_03,2,1,1,1,Reading_Baseline_main_no_click,None,besuchte,,,,,OA02,001,no,1500,2000,259,338,424,2024-08-26_08h51.13.528,EXNAT_3_fMRI_Psychopy2023.1.3,2023.1.3,74.99175758355952,
0,0,0,0,,,,,,,,,,,#F989A2,779.7040510177612,13.689178943634033,None,None,None,1320.5405827650404,text_03,3,1,1,1,Reading_Baseline_main_no_click,None,ihn,,,,,OA02,001,no,1500,2000,259,338,424,2024-08-26_08h51.13.528,EXNAT_3_fMRI_Psychopy2023.1.3,2023.1.3,74.99175758355952,
0,0,0,0,,,,,,,,,,,#2AB7EF,781.0370819568634,15.022209882736206,None,None,None,1320.5405827650404,text_03,4,1,1,1,Reading_Baseline_main_no_click,None,oft,,,,,OA02,001,no,1500,2000,259,338,424,2024-08-26_08h51.13.528,EXNAT_3_fMRI_Psychopy2023.1.3,2023.1.3,74.99175758355952,
0,0,0,0,,,,,,,,,,,#D292F3,782.3693969249725,16.354524850845337,None,None,None,1295.0,text_03,5,1,1,1,Reading_Baseline_main_no_click,None,in,,,,,OA02,001,no,1500,2000,259,338,424,2024-08-26_08h51.13.528,EXNAT_3_fMRI_Psychopy2023.1.3,2023.1.3,74.99175758355952,
0,0,0,0,,,,,,,,,,,#2AB7EF,783.6761059761047,17.66123390197754,None,None,None,1500.0,text_03,6,1,1,1,Reading_Baseline_main_no_click,None,seinem,,,,,OA02,001,no,1500,2000,259,338,424,2024-08-26_08h51.13.528,EXNAT_3_fMRI_Psychopy2023.1.3,2023.1.3,74.99175758355952,
0,0,0,0,,,,,,,,,,,#88BA3F,785.1823589801788,19.167486906051636,None,None,None,1395.0502395300516,text_03,7,1,1,1,Reading_Baseline_main_no_click,None,Haus,,,,,OA02,001,no,1500,2000,259,338,424,2024-08-26_08h51.13.528,EXNAT_3_fMRI_Psychopy2023.1.3,2023.1.3,74.99175758355952,
0,0,0,0,,,,,,,,,,,#D292F3,786.5816750526428,20.566802978515625,None,None,None,1320.5405827650404,text_03,8,1,1,1,Reading_Baseline_main_no_click,None,und,,,,,OA02,001,no,1500,2000,259,338,424,2024-08-26_08h51.13.528,EXNAT_3_fMRI_Psychopy2023.1.3,2023.1.3,74.99175758355952,
0,0,0,0,,,,,,,,,,,#F989A2,787.9152929782867,21.900420904159546,None,None,None,1452.844419320432,text_03,9,1,1,1,Reading_Baseline_main_no_click,None,bekam,,,,,OA02,001,no,1500,2000,259,338,424,2024-08-26_08h51.13.528,EXNAT_3_fMRI_Psychopy2023.1.3,2023.1.3,74.99175758355952,
0,0,0,0,,,,,,,,,,,#2AB7EF,789.3811619281769,23.366289854049683,None,None,None,1500.0,text_03,10,1,1,1,Reading_Baseline_main_no_click,None,Briefe,,,,,OA02,001,no,1500,2000,259,338,424,2024-08-26_08h51.13.528,EXNAT_3_fMRI_Psychopy2023.1.3,2023.1.3,74.99175758355952,
0,0,0,0,,,,,,,,,,,#F989A2,790.8864850997925,24.871613025665283,None,None,None,1320.5405827650404,text_03,11,1,1,1,Reading_Baseline_main_no_click,None,und,,,,,OA02,001,no,1500,2000,259,338,424,2024-08-26_08h51.13.528,EXNAT_3_fMRI_Psychopy2023.1.3,2023.1.3,74.99175758355952,
0,0,0,0,,,,,,,,,,,#88BA3F,792.2198300361633,26.204957962036133,None,None,None,1500.0,text_03,12,1,1,1,Reading_Baseline_main_no_click,None,Gedichte,,,,,OA02,001,no,1500,2000,259,338,424,2024-08-26_08h51.13.528,EXNAT_3_fMRI_Psychopy2023.1.3,2023.1.3,74.99175758355952,
0,0,0,0,,,,,,,,,,,#D292F3,793.7255570888519,27.71068501472473,None,None,None,1320.5405827650404,text_03,13,1,1,1,Reading_Baseline_main_no_click,None,von,,,,,OA02,001,no,1500,2000,259,338,424,2024-08-26_08h51.13.528,EXNAT_3_fMRI_Psychopy2023.1.3,2023.1.3,74.99175758355952,
0,0,0,0,,,,,,,,,,,#F989A2,795.0584330558777,29.04356098175049,None,None,None,1395.0502395300516,text_03,14,1,1,1,Reading_Baseline_main_no_click,None,ihm.,,,,,OA02,001,no,1500,2000,259,338,424,2024-08-26_08h51.13.528,EXNAT_3_fMRI_Psychopy2023.1.3,2023.1.3,74.99175758355952,
0,0,0,0,,,,,,,,,,,#88BA3F,796.4583220481873,30.44344997406006,None,None,None,1500.0,text_03,15,1,1,1,Reading_Baseline_main_no_click,None,Manchmal,,,,,OA02,001,no,1500,2000,259,338,424,2024-08-26_08h51.13.528,EXNAT_3_fMRI_Psychopy2023.1.3,2023.1.3,74.99175758355952,
0,0,0,0,,,,,,,,,,,#2AB7EF,797.964320898056,31.949448823928833,None,None,None,1500.0,text_03,16,1,1,1,Reading_Baseline_main_no_click,None,durfte,,,,,OA02,001,no,1500,2000,259,338,424,2024-08-26_08h51.13.528,EXNAT_3_fMRI_Psychopy2023.1.3,2023.1.3,74.99175758355952,
0,0,0,0,,,,,,,,,,,#F989A2,799.4699211120605,33.45504903793335,None,None,None,1320.5405827650404,text_03,17,1,1,1,Reading_Baseline_main_no_click,None,sie,,,,,OA02,001,no,1500,2000,259,338,424,2024-08-26_08h51.13.528,EXNAT_3_fMRI_Psychopy2023.1.3,2023.1.3,74.99175758355952,
0,0,0,0,,,,,,,,,,,#88BA3F,800.8026819229126,34.7878098487854,None,None,None,1320.5405827650404,text_03,18,1,1,1,Reading_Baseline_main_no_click,None,ihm,,,,,OA02,001,no,1500,2000,259,338,424,2024-08-26_08h51.13.528,EXNAT_3_fMRI_Psychopy2023.1.3,2023.1.3,74.99175758355952,
0,0,0,0,,,,,,,,,,,#F989A2,802.1360800266266,36.12120795249939,None,None,None,1452.844419320432,text_03,19,1,1,1,Reading_Baseline_main_no_click,None,sogar,,,,,OA02,001,no,1500,2000,259,338,424,2024-08-26_08h51.13.528,EXNAT_3_fMRI_Psychopy2023.1.3,2023.1.3,74.99175758355952,
0,0,0,0,,,,,,,,,,,#2AB7EF,803.6017870903015,37.586915016174316,None,None,None,1320.5405827650404,text_03,20,1,1,1,Reading_Baseline_main_no_click,None,die,,,,,OA02,001,no,1500,2000,259,338,424,2024-08-26_08h51.13.528,EXNAT_3_fMRI_Psychopy2023.1.3,2023.1.3,74.99175758355952,
0,0,0,0,,,,,,,,,,,#F989A2,804.9346969127655,38.919824838638306,None,None,None,1452.844419320432,text_03,21,1,1,1,Reading_Baseline_main_no_click,None,Haare,,,,,OA02,001,no,1500,2000,259,338,424,2024-08-26_08h51.13.528,EXNAT_3_fMRI_Psychopy2023.1.3,2023.1.3,74.99175758355952,
0,0,0,0,,,,,,,,,,,#D292F3,806.4010620117188,40.38618993759155,None,None,None,1500.0,text_03,22,1,1,1,Reading_Baseline_main_no_click,None,schneiden.,,,,,OA02,001,no,1500,2000,259,338,424,2024-08-26_08h51.13.528,EXNAT_3_fMRI_Psychopy2023.1.3,2023.1.3,74.99175758355952,
0,0,0,0,,,,,,,,,,,#88BA3F,807.9075169563293,41.89264488220215,None,None,None,1500.0,text_03,23,1,1,1,Reading_Baseline_main_no_click,None,Johanna,,,,,OA02,001,no,1500,2000,259,338,424,2024-08-26_08h51.13.528,EXNAT_3_fMRI_Psychopy2023.1.3,2023.1.3,74.99175758355952,
0,0,0,0,,,,,,,,,,,#2AB7EF,809.4782240390778,43.46335196495056,None,None,None,1500.0,text_03,24,1,1,1,Reading_Baseline_main_no_click,None,Fantova,,,,,OA02,001,no,1500,2000,259,338,424,2024-08-26_08h51.13.528,EXNAT_3_fMRI_Psychopy2023.1.3,2023.1.3,74.99175758355952,
0,0,0,0,,,,,,,,,,,#88BA3F,810.9858069419861,44.97093486785889,None,None,None,1395.0502395300516,text_03,25,1,1,1,Reading_Baseline_main_no_click,None,galt,,,,,OA02,001,no,1500,2000,259,338,424,2024-08-26_08h51.13.528,EXNAT_3_fMRI_Psychopy2023.1.3,2023.1.3,74.99175758355952,
0,0,0,0,,,,,,,,,,,#D292F3,812.3855519294739,46.37067985534668,None,None,None,1320.5405827650404,text_03,26,1,1,1,Reading_Baseline_main_no_click,None,als,,,,,OA02,001,no,1500,2000,259,338,424,2024-08-26_08h51.13.528,EXNAT_3_fMRI_Psychopy2023.1.3,2023.1.3,74.99175758355952,
0,0,0,0,,,,,,,,,,,#F989A2,813.7187259197235,47.70385384559631,None,None,None,1500.0,text_03,27,1,1,1,Reading_Baseline_main_no_click,None,letzte,,,,,OA02,001,no,1500,2000,259,338,424,2024-08-26_08h51.13.528,EXNAT_3_fMRI_Psychopy2023.1.3,2023.1.3,74.99175758355952,
0,0,0,0,,,,,,,,,,,#2AB7EF,815.2246899604797,49.20981788635254,None,None,None,1500.0,text_03,28,1,1,1,Reading_Baseline_main_no_click,None,Freundin,,,,,OA02,001,no,1500,2000,259,338,424,2024-08-26_08h51.13.528,EXNAT_3_fMRI_Psychopy2023.1.3,2023.1.3,74.99175758355952,
0,0,0,0,,,,,,,,,,,#88BA3F,816.7306361198425,50.71576404571533,None,None,None,1320.5405827650404,text_03,29,1,1,1,Reading_Baseline_main_no_click,None,von,,,,,OA02,001,no,1500,2000,259,338,424,2024-08-26_08h51.13.528,EXNAT_3_fMRI_Psychopy2023.1.3,2023.1.3,74.99175758355952,
0,0,0,0,,,,,,,,,,,#88BA3F,818.0642690658569,52.049396991729736,None,None,None,1500.0,text_03,30,1,1,1,Reading_Baseline_main_no_click,None,Albert,,,,,OA02,001,no,1500,2000,259,338,424,2024-08-26_08h51.13.528,EXNAT_3_fMRI_Psychopy2023.1.3,2023.1.3,74.99175758355952,
0,0,0,0,,,,,,,,,,,#D292F3,819.5704479217529,53.55557584762573,None,None,None,1500.0,text_03,31,1,1,1,Reading_Baseline_main_no_click,None,Einstein.,,,,,OA02,001,no,1500,2000,259,338,424,2024-08-26_08h51.13.528,EXNAT_3_fMRI_Psychopy2023.1.3,2023.1.3,74.99175758355952,
0,0,0,0,,,,,,,,,,,#88BA3F,821.0763609409332,55.06148886680603,None,None,None,1320.5405827650404,text_03,32,1,1,1,Reading_Baseline_main_no_click,None,Die,,,,,OA02,001,no,1500,2000,259,338,424,2024-08-26_08h51.13.528,EXNAT_3_fMRI_Psychopy2023.1.3,2023.1.3,74.99175758355952,
0,0,0,0,,,,,,,,,,,#2AB7EF,822.4089169502258,56.39404487609863,None,None,None,1500.0,text_03,33,1,1,1,Reading_Baseline_main_no_click,None,beiden,,,,,OA02,001,no,1500,2000,259,338,424,2024-08-26_08h51.13.528,EXNAT_3_fMRI_Psychopy2023.1.3,2023.1.3,74.99175758355952,
0,0,0,0,,,,,,,,,,,#D292F3,823.9164409637451,57.90156888961792,None,None,None,1500.0,text_03,34,1,1,1,Reading_Baseline_main_no_click,None,trafen,,,,,OA02,001,no,1500,2000,259,338,424,2024-08-26_08h51.13.528,EXNAT_3_fMRI_Psychopy2023.1.3,2023.1.3,74.99175758355952,
0,0,0,0,,,,,,,,,,,#F989A2,825.4226291179657,59.4077570438385,None,None,None,1395.0502395300516,text_03,35,1,1,1,Reading_Baseline_main_no_click,None,sich,,,,,OA02,001,no,1500,2000,259,338,424,2024-08-26_08h51.13.528,EXNAT_3_fMRI_Psychopy2023.1.3,2023.1.3,74.99175758355952,
0,0,0,0,,,,,,,,,,,#D292F3,826.8248150348663,60.809942960739136,None,None,None,1500.0,text_03,36,1,1,1,Reading_Baseline_main_no_click,None,"regelmäßig,",,,,,OA02,001,no,1500,2000,259,338,424,2024-08-26_08h51.13.528,EXNAT_3_fMRI_Psychopy2023.1.3,2023.1.3,74.99175758355952,
0,0,0,0,,,,,,,,,,,#88BA3F,828.3290491104126,62.3141770362854,None,None,None,1500.0,text_03,37,1,1,1,Reading_Baseline_main_no_click,None,telefonierten,,,,,OA02,001,no,1500,2000,259,338,424,2024-08-26_08h51.13.528,EXNAT_3_fMRI_Psychopy2023.1.3,2023.1.3,74.99175758355952,
0,0,0,0,,,,,,,,,,,#2AB7EF,829.834645986557,63.81977391242981,None,None,None,1395.0502395300516,text_03,38,1,1,1,Reading_Baseline_main_no_click,None,viel,,,,,OA02,001,no,1500,2000,259,338,424,2024-08-26_08h51.13.528,EXNAT_3_fMRI_Psychopy2023.1.3,2023.1.3,74.99175758355952,
0,0,0,0,,,,,,,,,,,#D292F3,831.2338869571686,65.21901488304138,None,None,None,1320.5405827650404,text_03,39,1,1,1,Reading_Baseline_main_no_click,None,und,,,,,OA02,001,no,1500,2000,259,338,424,2024-08-26_08h51.13.528,EXNAT_3_fMRI_Psychopy2023.1.3,2023.1.3,74.99175758355952,
0,0,0,0,,,,,,,,,,,#2AB7EF,832.5667989253998,66.55192685127258,None,None,None,1500.0,text_03,40,1,1,1,Reading_Baseline_main_no_click,None,gingen,,,,,OA02,001,no,1500,2000,259,338,424,2024-08-26_08h51.13.528,EXNAT_3_fMRI_Psychopy2023.1.3,2023.1.3,74.99175758355952,
0,0,0,0,,,,,,,,,,,#F989A2,834.0729250907898,68.0580530166626,None,None,None,1500.0,text_03,41,1,1,1,Reading_Baseline_main_no_click,None,miteinander,,,,,OA02,001,no,1500,2000,259,338,424,2024-08-26_08h51.13.528,EXNAT_3_fMRI_Psychopy2023.1.3,2023.1.3,74.99175758355952,
0,0,0,0,,,,,,,,,,,#2AB7EF,835.5790181159973,69.56414604187012,None,None,None,1500.0,text_03,42,1,1,1,Reading_Baseline_main_no_click,None,segeln.,,,,,OA02,001,no,1500,2000,259,338,424,2024-08-26_08h51.13.528,EXNAT_3_fMRI_Psychopy2023.1.3,2023.1.3,74.99175758355952,
0,0,0,0,,,,,,,,,,,#D292F3,837.0856671333313,71.0707950592041,None,None,None,1320.5405827650404,text_03,43,1,1,1,Reading_Baseline_main_no_click,None,Nun,,,,,OA02,001,no,1500,2000,259,338,424,2024-08-26_08h51.13.528,EXNAT_3_fMRI_Psychopy2023.1.3,2023.1.3,74.99175758355952,
0,0,0,0,,,,,,,,,,,#2AB7EF,838.4185481071472,72.40367603302002,None,None,None,1452.844419320432,text_03,44,1,1,1,Reading_Baseline_main_no_click,None,wurde,,,,,OA02,001,no,1500,2000,259,338,424,2024-08-26_08h51.13.528,EXNAT_3_fMRI_Psychopy2023.1.3,2023.1.3,74.99175758355952,
0,0,0,0,,,,,,,,,,,#88BA3F,839.884397983551,73.86952590942383,None,None,None,1500.0,text_03,45,1,1,1,Reading_Baseline_main_no_click,None,"bekannt,",,,,,OA02,001,no,1500,2000,259,338,424,2024-08-26_08h51.13.528,EXNAT_3_fMRI_Psychopy2023.1.3,2023.1.3,74.99175758355952,
0,0,0,0,,,,,,,,,,,#F989A2,841.390711069107,75.37583899497986,None,None,None,1320.5405827650404,text_03,46,1,1,1,Reading_Baseline_main_no_click,None,was,,,,,OA02,001,no,1500,2000,259,338,424,2024-08-26_08h51.13.528,EXNAT_3_fMRI_Psychopy2023.1.3,2023.1.3,74.99175758355952,
0,0,0,0,,,,,,,,,,,#2AB7EF,842.7232201099396,76.70834803581238,None,None,None,1500.0,text_03,47,1,1,1,Reading_Baseline_main_no_click,None,offenbar,,,,,OA02,001,no,1500,2000,259,338,424,2024-08-26_08h51.13.528,EXNAT_3_fMRI_Psychopy2023.1.3,2023.1.3,74.99175758355952,
0,0,0,0,,,,,,,,,,,#88BA3F,844.2296829223633,78.21481084823608,None,None,None,1452.844419320432,text_03,48,1,1,1,Reading_Baseline_main_no_click,None,nicht,,,,,OA02,001,no,1500,2000,259,338,424,2024-08-26_08h51.13.528,EXNAT_3_fMRI_Psychopy2023.1.3,2023.1.3,74.99175758355952,
0,0,0,0,,,,,,,,,,,#2AB7EF,845.695475101471,79.68060302734375,None,None,None,1500.0,text_03,49,1,1,1,Reading_Baseline_main_no_click,None,einmal,,,,,OA02,001,no,1500,2000,259,338,424,2024-08-26_08h51.13.528,EXNAT_3_fMRI_Psychopy2023.1.3,2023.1.3,74.99175758355952,
0,0,0,0,,,,,,,,,,,#88BA3F,847.2015450000763,81.1866729259491,None,None,None,1500.0,text_03,50,1,1,1,Reading_Baseline_main_no_click,None,Einstein,,,,,OA02,001,no,1500,2000,259,338,424,2024-08-26_08h51.13.528,EXNAT_3_fMRI_Psychopy2023.1.3,2023.1.3,74.99175758355952,
0,0,0,0,,,,,,,,,,,#D292F3,848.7082469463348,82.69337487220764,None,None,None,1500.0,text_03,51,1,1,1,Reading_Baseline_main_no_click,None,wusste:,,,,,OA02,001,no,1500,2000,259,338,424,2024-08-26_08h51.13.528,EXNAT_3_fMRI_Psychopy2023.1.3,2023.1.3,74.99175758355952,
0,0,0,0,,,,,,,,,,,#2AB7EF,850.2136859893799,84.19881391525269,None,None,None,1500.0,text_03,52,1,1,1,Reading_Baseline_main_no_click,None,Johanna,,,,,OA02,001,no,1500,2000,259,338,424,2024-08-26_08h51.13.528,EXNAT_3_fMRI_Psychopy2023.1.3,2023.1.3,74.99175758355952,
0,0,0,0,,,,,,,,,,,#F989A2,851.719820022583,85.70494794845581,None,None,None,1500.0,text_03,53,1,1,1,Reading_Baseline_main_no_click,None,Fantova,,,,,OA02,001,no,1500,2000,259,338,424,2024-08-26_08h51.13.528,EXNAT_3_fMRI_Psychopy2023.1.3,2023.1.3,74.99175758355952,
0,0,0,0,,,,,,,,,,,#2AB7EF,853.2262060642242,87.21133399009705,None,None,None,1500.0,text_03,54,1,1,1,Reading_Baseline_main_no_click,None,fertigte,,,,,OA02,001,no,1500,2000,259,338,424,2024-08-26_08h51.13.528,EXNAT_3_fMRI_Psychopy2023.1.3,2023.1.3,74.99175758355952,
0,0,0,0,,,,,,,,,,,#D292F3,854.7323410511017,88.71746897697449,None,None,None,1500.0,text_03,55,1,1,1,Reading_Baseline_main_no_click,None,Notizen,,,,,OA02,001,no,1500,2000,259,338,424,2024-08-26_08h51.13.528,EXNAT_3_fMRI_Psychopy2023.1.3,2023.1.3,74.99175758355952,
0,0,0,0,,,,,,,,,,,#2AB7EF,856.238608121872,90.22373604774475,None,None,None,1395.0502395300516,text_03,56,1,1,1,Reading_Baseline_main_no_click,None,über,,,,,OA02,001,no,1500,2000,259,338,424,2024-08-26_08h51.13.528,EXNAT_3_fMRI_Psychopy2023.1.3,2023.1.3,74.99175758355952,
0,0,0,0,,,,,,,,,,,#88BA3F,857.6376569271088,91.62278485298157,None,None,None,1320.5405827650404,text_03,57,1,1,1,Reading_Baseline_main_no_click,None,den,,,,,OA02,001,no,1500,2000,259,338,424,2024-08-26_08h51.13.528,EXNAT_3_fMRI_Psychopy2023.1.3,2023.1.3,74.99175758355952,
0,0,0,0,,,,,,,,,,,#88BA3F,858.9711511135101,92.95627903938293,None,None,None,1500.0,text_03,58,1,1,1,Reading_Baseline_main_no_click,None,Inhalt,,,,,OA02,001,no,1500,2000,259,338,424,2024-08-26_08h51.13.528,EXNAT_3_fMRI_Psychopy2023.1.3,2023.1.3,74.99175758355952,
0,0,0,0,,,,,,,,,,,#D292F3,860.4767389297485,94.46186685562134,None,None,None,1452.844419320432,text_03,59,1,1,1,Reading_Baseline_main_no_click,None,ihrer,,,,,OA02,001,no,1500,2000,259,338,424,2024-08-26_08h51.13.528,EXNAT_3_fMRI_Psychopy2023.1.3,2023.1.3,74.99175758355952,
0,0,0,0,,,,,,,,,,,#F989A2,861.9437279701233,95.9288558959961,None,None,None,1500.0,text_03,60,1,1,1,Reading_Baseline_main_no_click,None,Gespräche,,,,,OA02,001,no,1500,2000,259,338,424,2024-08-26_08h51.13.528,EXNAT_3_fMRI_Psychopy2023.1.3,2023.1.3,74.99175758355952,
0,0,0,0,,,,,,,,,,,#D292F3,863.4489381313324,97.4340660572052,None,None,None,1320.5405827650404,text_03,61,1,1,1,Reading_Baseline_main_no_click,None,an.,,,,,OA02,001,no,1500,2000,259,338,424,2024-08-26_08h51.13.528,EXNAT_3_fMRI_Psychopy2023.1.3,2023.1.3,74.99175758355952,
0,0,0,0,,,,,,,,,,,#88BA3F,864.781907081604,98.7670350074768,None,None,None,1295.0,text_03,62,1,1,1,Reading_Baseline_main_no_click,None,In,,,,,OA02,001,no,1500,2000,259,338,424,2024-08-26_08h51.13.528,EXNAT_3_fMRI_Psychopy2023.1.3,2023.1.3,74.99175758355952,
0,0,0,0,,,,,,,,,,,#2AB7EF,866.0881679058075,100.0732958316803,None,None,None,1452.844419320432,text_03,63,1,1,1,Reading_Baseline_main_no_click,None,ihren,,,,,OA02,001,no,1500,2000,259,338,424,2024-08-26_08h51.13.528,EXNAT_3_fMRI_Psychopy2023.1.3,2023.1.3,74.99175758355952,
0,0,0,0,,,,,,,,,,,#F989A2,867.5543730258942,101.53950095176697,None,None,None,1500.0,text_03,64,1,1,1,Reading_Baseline_main_no_click,None,Aufzeichnungen,,,,,OA02,001,no,1500,2000,259,338,424,2024-08-26_08h51.13.528,EXNAT_3_fMRI_Psychopy2023.1.3,2023.1.3,74.99175758355952,
0,0,0,0,,,,,,,,,,,#2AB7EF,869.0603430271149,103.04547095298767,None,None,None,1452.844419320432,text_03,65,1,1,1,Reading_Baseline_main_no_click,None,zeigt,,,,,OA02,001,no,1500,2000,259,338,424,2024-08-26_08h51.13.528,EXNAT_3_fMRI_Psychopy2023.1.3,2023.1.3,74.99175758355952,
0,0,0,0,,,,,,,,,,,#F989A2,870.5263669490814,104.51149487495422,None,None,None,1320.5405827650404,text_03,66,1,1,1,Reading_Baseline_main_no_click,None,sie,,,,,OA02,001,no,1500,2000,259,338,424,2024-08-26_08h51.13.528,EXNAT_3_fMRI_Psychopy2023.1.3,2023.1.3,74.99175758355952,
0,0,0,0,,,,,,,,,,,#88BA3F,871.8592550754547,105.84438300132751,None,None,None,1320.5405827650404,text_03,67,1,1,1,Reading_Baseline_main_no_click,None,ihn,,,,,OA02,001,no,1500,2000,259,338,424,2024-08-26_08h51.13.528,EXNAT_3_fMRI_Psychopy2023.1.3,2023.1.3,74.99175758355952,
0,0,0,0,,,,,,,,,,,#D292F3,873.1923339366913,107.17746186256409,None,None,None,1452.844419320432,text_03,68,1,1,1,Reading_Baseline_main_no_click,None,nicht,,,,,OA02,001,no,1500,2000,259,338,424,2024-08-26_08h51.13.528,EXNAT_3_fMRI_Psychopy2023.1.3,2023.1.3,74.99175758355952,
0,0,0,0,,,,,,,,,,,#2AB7EF,874.6584911346436,108.64361906051636,None,None,None,1320.5405827650404,text_03,69,1,1,1,Reading_Baseline_main_no_click,None,als,,,,,OA02,001,no,1500,2000,259,338,424,2024-08-26_08h51.13.528,EXNAT_3_fMRI_Psychopy2023.1.3,2023.1.3,74.99175758355952,
0,0,0,0,,,,,,,,,,,#88BA3F,875.9911770820618,109.97630500793457,None,None,None,1320.5405827650404,text_03,70,1,1,1,Reading_Baseline_main_no_click,None,den,,,,,OA02,001,no,1500,2000,259,338,424,2024-08-26_08h51.13.528,EXNAT_3_fMRI_Psychopy2023.1.3,2023.1.3,74.99175758355952,
0,0,0,0,,,,,,,,,,,#F989A2,877.3242330551147,111.30936098098755,None,None,None,1500.0,text_03,71,1,1,1,Reading_Baseline_main_no_click,None,großen,,,,,OA02,001,no,1500,2000,259,338,424,2024-08-26_08h51.13.528,EXNAT_3_fMRI_Psychopy2023.1.3,2023.1.3,74.99175758355952,
0,0,0,0,,,,,,,,,,,#F989A2,878.8302609920502,112.81538891792297,None,None,None,1452.844419320432,text_03,72,1,1,1,Reading_Baseline_main_no_click,None,"Mann,",,,,,OA02,001,no,1500,2000,259,338,424,2024-08-26_08h51.13.528,EXNAT_3_fMRI_Psychopy2023.1.3,2023.1.3,74.99175758355952,
0,0,0,0,,,,,,,,,,,#D292F3,880.2962651252747,114.28139305114746,None,None,None,1320.5405827650404,text_03,73,1,1,1,Reading_Baseline_main_no_click,None,der,,,,,OA02,001,no,1500,2000,259,338,424,2024-08-26_08h51.13.528,EXNAT_3_fMRI_Psychopy2023.1.3,2023.1.3,74.99175758355952,
0,0,0,0,,,,,,,,,,,#F989A2,881.6291160583496,115.61424398422241,None,None,None,1295.0,text_03,74,1,1,1,Reading_Baseline_main_no_click,None,zu,,,,,OA02,001,no,1500,2000,259,338,424,2024-08-26_08h51.13.528,EXNAT_3_fMRI_Psychopy2023.1.3,2023.1.3,74.99175758355952,
0,0,0,0,,,,,,,,,,,#88BA3F,882.9361069202423,116.92123484611511,None,None,None,1500.0,text_03,75,1,1,1,Reading_Baseline_main_no_click,None,Lebzeiten,,,,,OA02,001,no,1500,2000,259,338,424,2024-08-26_08h51.13.528,EXNAT_3_fMRI_Psychopy2023.1.3,2023.1.3,74.99175758355952,
0,0,0,0,,,,,,,,,,,#F989A2,884.4414849281311,118.4266128540039,None,None,None,1320.5405827650404,text_03,76,1,1,1,Reading_Baseline_main_no_click,None,zur,,,,,OA02,001,no,1500,2000,259,338,424,2024-08-26_08h51.13.528,EXNAT_3_fMRI_Psychopy2023.1.3,2023.1.3,74.99175758355952,
0,0,0,0,,,,,,,,,,,#2AB7EF,885.7749359607697,119.76006388664246,None,None,None,1500.0,text_03,77,1,1,1,Reading_Baseline_main_no_click,None,Legende,,,,,OA02,001,no,1500,2000,259,338,424,2024-08-26_08h51.13.528,EXNAT_3_fMRI_Psychopy2023.1.3,2023.1.3,74.99175758355952,
0,0,0,0,,,,,,,,,,,#D292F3,887.28084897995,121.26597690582275,None,None,None,1500.0,text_03,78,1,1,1,Reading_Baseline_main_no_click,None,"wurde,",,,,,OA02,001,no,1500,2000,259,338,424,2024-08-26_08h51.13.528,EXNAT_3_fMRI_Psychopy2023.1.3,2023.1.3,74.99175758355952,
0,0,0,0,,,,,,,,,,,#F989A2,888.7868049144745,122.77193284034729,None,None,None,1500.0,text_03,79,1,1,1,Reading_Baseline_main_no_click,None,sondern,,,,,OA02,001,no,1500,2000,259,338,424,2024-08-26_08h51.13.528,EXNAT_3_fMRI_Psychopy2023.1.3,2023.1.3,74.99175758355952,
0,0,0,0,,,,,,,,,,,#D292F3,890.2928330898285,124.2779610157013,None,None,None,1320.5405827650404,text_03,80,1,1,1,Reading_Baseline_main_no_click,None,als,,,,,OA02,001,no,1500,2000,259,338,424,2024-08-26_08h51.13.528,EXNAT_3_fMRI_Psychopy2023.1.3,2023.1.3,74.99175758355952,
0,0,0,0,,,,,,,,,,,#2AB7EF,891.6258809566498,125.61100888252258,None,None,None,1500.0,text_03,81,1,1,1,Reading_Baseline_main_no_click,None,"Einstein,",,,,,OA02,001,no,1500,2000,259,338,424,2024-08-26_08h51.13.528,EXNAT_3_fMRI_Psychopy2023.1.3,2023.1.3,74.99175758355952,
0,0,0,0,,,,,,,,,,,#88BA3F,893.1317300796509,127.11685800552368,None,None,None,1320.5405827650404,text_03,82,1,1,1,Reading_Baseline_main_no_click,None,den,,,,,OA02,001,no,1500,2000,259,338,424,2024-08-26_08h51.13.528,EXNAT_3_fMRI_Psychopy2023.1.3,2023.1.3,74.99175758355952,
0,0,0,0,,,,,,,,,,,#88BA3F,894.464919090271,128.4500470161438,None,None,None,1500.0,text_03,83,1,1,1,Reading_Baseline_main_no_click,None,Menschenfreund.,,,,,OA02,001,no,1500,2000,259,338,424,2024-08-26_08h51.13.528,EXNAT_3_fMRI_Psychopy2023.1.3,2023.1.3,74.99175758355952,
0,0,0,0,,,,,,,,,,,#2AB7EF,895.9707450866699,129.95587301254272,None,None,None,1320.5405827650404,text_03,84,1,1,1,Reading_Baseline_main_no_click,None,Die,,,,,OA02,001,no,1500,2000,259,338,424,2024-08-26_08h51.13.528,EXNAT_3_fMRI_Psychopy2023.1.3,2023.1.3,74.99175758355952,
0,0,0,0,,,,,,,,,,,#D292F3,897.3043460845947,131.28947401046753,None,None,None,1500.0,text_03,85,1,1,1,Reading_Baseline_main_no_click,None,Nachwelt,,,,,OA02,001,no,1500,2000,259,338,424,2024-08-26_08h51.13.528,EXNAT_3_fMRI_Psychopy2023.1.3,2023.1.3,74.99175758355952,
0,0,0,0,,,,,,,,,,,#2AB7EF,898.8101909160614,132.7953188419342,None,None,None,1500.0,text_03,86,1,1,1,Reading_Baseline_main_no_click,None,dürfte,,,,,OA02,001,no,1500,2000,259,338,424,2024-08-26_08h51.13.528,EXNAT_3_fMRI_Psychopy2023.1.3,2023.1.3,74.99175758355952,
0,0,0,0,,,,,,,,,,,#D292F3,900.3159971237183,134.30112504959106,None,None,None,1320.5405827650404,text_03,87,1,1,1,Reading_Baseline_main_no_click,None,ihr,,,,,OA02,001,no,1500,2000,259,338,424,2024-08-26_08h51.13.528,EXNAT_3_fMRI_Psychopy2023.1.3,2023.1.3,74.99175758355952,
0,0,0,0,,,,,,,,,,,#F989A2,901.6489160060883,135.63404393196106,None,None,None,1500.0,text_03,88,1,1,1,Reading_Baseline_main_no_click,None,dankbar,,,,,OA02,001,no,1500,2000,259,338,424,2024-08-26_08h51.13.528,EXNAT_3_fMRI_Psychopy2023.1.3,2023.1.3,74.99175758355952,
0,0,0,0,,,,,,,,,,,#D292F3,903.1550140380859,137.14014196395874,None,None,None,1452.844419320432,text_03,89,1,1,1,Reading_Baseline_main_no_click,None,sein.,,,,,OA02,001,no,1500,2000,259,338,424,2024-08-26_08h51.13.528,EXNAT_3_fMRI_Psychopy2023.1.3,2023.1.3,74.99175758355952,
0,0,0,0,,,,,,,,,,,#88BA3F,904.6216189861298,138.60674691200256,None,None,None,1395.0502395300516,text_03,90,1,1,1,Reading_Baseline_main_no_click,None,Ohne,,,,,OA02,001,no,1500,2000,259,338,424,2024-08-26_08h51.13.528,EXNAT_3_fMRI_Psychopy2023.1.3,2023.1.3,74.99175758355952,
0,0,0,0,,,,,,,,,,,#2AB7EF,906.020632982254,140.00576090812683,None,None,None,1320.5405827650404,text_03,91,1,1,1,Reading_Baseline_main_no_click,None,die,,,,,OA02,001,no,1500,2000,259,338,424,2024-08-26_08h51.13.528,EXNAT_3_fMRI_Psychopy2023.1.3,2023.1.3,74.99175758355952,
0,0,0,0,,,,,,,,,,,#88BA3F,907.354171037674,141.33929896354675,None,None,None,1500.0,text_03,92,1,1,1,Reading_Baseline_main_no_click,None,Notizen,,,,,OA02,001,no,1500,2000,259,338,424,2024-08-26_08h51.13.528,EXNAT_3_fMRI_Psychopy2023.1.3,2023.1.3,74.99175758355952,
0,0,0,0,,,,,,,,,,,#2AB7EF,908.8601109981537,142.8452389240265,None,None,None,1500.0,text_03,93,1,1,1,Reading_Baseline_main_no_click,None,wüssten,,,,,OA02,001,no,1500,2000,259,338,424,2024-08-26_08h51.13.528,EXNAT_3_fMRI_Psychopy2023.1.3,2023.1.3,74.99175758355952,
0,0,0,0,,,,,,,,,,,#D292F3,910.3658850193024,144.35101294517517,None,None,None,1320.5405827650404,text_03,94,1,1,1,Reading_Baseline_main_no_click,None,wir,,,,,OA02,001,no,1500,2000,259,338,424,2024-08-26_08h51.13.528,EXNAT_3_fMRI_Psychopy2023.1.3,2023.1.3,74.99175758355952,
0,0,0,0,,,,,,,,,,,#88BA3F,911.698753118515,145.68388104438782,None,None,None,1452.844419320432,text_03,95,1,1,1,Reading_Baseline_main_no_click,None,heute,,,,,OA02,001,no,1500,2000,259,338,424,2024-08-26_08h51.13.528,EXNAT_3_fMRI_Psychopy2023.1.3,2023.1.3,74.99175758355952,
0,0,0,0,,,,,,,,,,,#F989A2,913.1648540496826,147.14998197555542,None,None,None,1500.0,text_03,96,1,1,1,Reading_Baseline_main_no_click,None,nichts,,,,,OA02,001,no,1500,2000,259,338,424,2024-08-26_08h51.13.528,EXNAT_3_fMRI_Psychopy2023.1.3,2023.1.3,74.99175758355952,
0,0,0,0,,,,,,,,,,,#D292F3,914.6708960533142,148.656023979187,None,None,None,1320.5405827650404,text_03,97,1,1,1,Reading_Baseline_main_no_click,None,von,,,,,OA02,001,no,1500,2000,259,338,424,2024-08-26_08h51.13.528,EXNAT_3_fMRI_Psychopy2023.1.3,2023.1.3,74.99175758355952,
0,0,0,0,,,,,,,,,,,#F989A2,916.0039451122284,149.9890730381012,None,None,None,1452.844419320432,text_03,98,1,1,1,Reading_Baseline_main_no_click,None,"Bibo,",,,,,OA02,001,no,1500,2000,259,338,424,2024-08-26_08h51.13.528,EXNAT_3_fMRI_Psychopy2023.1.3,2023.1.3,74.99175758355952,
0,0,0,0,,,,,,,,,,,#D292F3,917.4700849056244,151.4552128314972,None,None,None,1320.5405827650404,text_03,99,1,1,1,Reading_Baseline_main_no_click,None,dem,,,,,OA02,001,no,1500,2000,259,338,424,2024-08-26_08h51.13.528,EXNAT_3_fMRI_Psychopy2023.1.3,2023.1.3,74.99175758355952,
0,0,0,0,,,,,,,,,,,#88BA3F,918.8032419681549,152.7883698940277,None,None,None,1500.0,text_03,100,1,1,1,Reading_Baseline_main_no_click,None,traurigen,,,,,OA02,001,no,1500,2000,259,338,424,2024-08-26_08h51.13.528,EXNAT_3_fMRI_Psychopy2023.1.3,2023.1.3,74.99175758355952,
0,0,0,0,,,,,,,,,,,#F989A2,920.3099589347839,154.29508686065674,None,None,None,1500.0,text_03,101,1,1,1,Reading_Baseline_main_no_click,None,Papagei.,,,,,OA02,001,no,1500,2000,259,338,424,2024-08-26_08h51.13.528,EXNAT_3_fMRI_Psychopy2023.1.3,2023.1.3,74.99175758355952,
0,0,0,0,,,,,,,,,,,#F989A2,921.8150489330292,155.80017685890198,None,None,None,1395.0502395300516,text_03,102,1,1,1,Reading_Baseline_main_no_click,None,Auch,,,,,OA02,001,no,1500,2000,259,338,424,2024-08-26_08h51.13.528,EXNAT_3_fMRI_Psychopy2023.1.3,2023.1.3,74.99175758355952,
0,0,0,0,,,,,,,,,,,#2AB7EF,923.2147459983826,157.19987392425537,None,None,None,1395.0502395300516,text_03,103,1,1,1,Reading_Baseline_main_no_click,None,eine,,,,,OA02,001,no,1500,2000,259,338,424,2024-08-26_08h51.13.528,EXNAT_3_fMRI_Psychopy2023.1.3,2023.1.3,74.99175758355952,
0,0,0,0,,,,,,,,,,,#F989A2,924.6143970489502,158.599524974823,None,None,None,1452.844419320432,text_03,104,1,1,1,Reading_Baseline_main_no_click,None,ganze,,,,,OA02,001,no,1500,2000,259,338,424,2024-08-26_08h51.13.528,EXNAT_3_fMRI_Psychopy2023.1.3,2023.1.3,74.99175758355952,
0,0,0,0,,,,,,,,,,,#88BA3F,926.0808811187744,160.06600904464722,None,None,None,1452.844419320432,text_03,105,1,1,1,Reading_Baseline_main_no_click,None,Reihe,,,,,OA02,001,no,1500,2000,259,338,424,2024-08-26_08h51.13.528,EXNAT_3_fMRI_Psychopy2023.1.3,2023.1.3,74.99175758355952,
0,0,0,0,,,,,,,,,,,#2AB7EF,927.5467660427094,161.53189396858215,None,None,None,1500.0,text_03,106,1,1,1,Reading_Baseline_main_no_click,None,kluger,,,,,OA02,001,no,1500,2000,259,338,424,2024-08-26_08h51.13.528,EXNAT_3_fMRI_Psychopy2023.1.3,2023.1.3,74.99175758355952,
0,0,0,0,,,,,,,,,,,#D292F3,929.0527629852295,163.0378909111023,None,None,None,1320.5405827650404,text_03,107,1,1,1,Reading_Baseline_main_no_click,None,und,,,,,OA02,001,no,1500,2000,259,338,424,2024-08-26_08h51.13.528,EXNAT_3_fMRI_Psychopy2023.1.3,2023.1.3,74.99175758355952,
0,0,0,0,,,,,,,,,,,#2AB7EF,930.3854999542236,164.37062788009644,None,None,None,1500.0,text_03,108,1,1,1,Reading_Baseline_main_no_click,None,lustiger,,,,,OA02,001,no,1500,2000,259,338,424,2024-08-26_08h51.13.528,EXNAT_3_fMRI_Psychopy2023.1.3,2023.1.3,74.99175758355952,
0,0,0,0,,,,,,,,,,,#F989A2,931.8923840522766,165.8775119781494,None,None,None,1500.0,text_03,109,1,1,1,Reading_Baseline_main_no_click,None,Zitate,,,,,OA02,001,no,1500,2000,259,338,424,2024-08-26_08h51.13.528,EXNAT_3_fMRI_Psychopy2023.1.3,2023.1.3,74.99175758355952,
0,0,0,0,,,,,,,,,,,#2AB7EF,933.3975739479065,167.3827018737793,None,None,None,1320.5405827650404,text_03,110,1,1,1,Reading_Baseline_main_no_click,None,von,,,,,OA02,001,no,1500,2000,259,338,424,2024-08-26_08h51.13.528,EXNAT_3_fMRI_Psychopy2023.1.3,2023.1.3,74.99175758355952,
0,0,0,0,,,,,,,,,,,#D292F3,934.7308549880981,168.71598291397095,None,None,None,1500.0,text_03,111,1,1,1,Reading_Baseline_main_no_click,None,Einstein,,,,,OA02,001,no,1500,2000,259,338,424,2024-08-26_08h51.13.528,EXNAT_3_fMRI_Psychopy2023.1.3,2023.1.3,74.99175758355952,
0,0,0,0,,,,,,,,,,,#2AB7EF,936.237242937088,170.22237086296082,None,None,None,1452.844419320432,text_03,112,1,1,1,Reading_Baseline_main_no_click,None,wären,,,,,OA02,001,no,1500,2000,259,338,424,2024-08-26_08h51.13.528,EXNAT_3_fMRI_Psychopy2023.1.3,2023.1.3,74.99175758355952,
0,0,0,0,,,,,,,,,,,#88BA3F,937.7032079696655,171.68833589553833,None,None,None,1500.0,text_03,113,1,1,1,Reading_Baseline_main_no_click,None,verloren,,,,,OA02,001,no,1500,2000,259,338,424,2024-08-26_08h51.13.528,EXNAT_3_fMRI_Psychopy2023.1.3,2023.1.3,74.99175758355952,
0,0,0,0,,,,,,,,,,,#2AB7EF,939.2091000080109,173.19422793388367,None,None,None,1500.0,text_03,114,1,1,1,Reading_Baseline_main_no_click,None,gegangen.,,,,,OA02,001,no,1500,2000,259,338,424,2024-08-26_08h51.13.528,EXNAT_3_fMRI_Psychopy2023.1.3,2023.1.3,74.99175758355952,
0,0,0,0,,,,,,,,,,,#F989A2,940.7149720191956,174.70009994506836,None,None,None,1295.0,text_03,115,1,1,1,Reading_Baseline_main_no_click,None,Es,,,,,OA02,001,no,1500,2000,259,338,424,2024-08-26_08h51.13.528,EXNAT_3_fMRI_Psychopy2023.1.3,2023.1.3,74.99175758355952,
0,0,0,0,,,,,,,,,,,#D292F3,942.0212700366974,176.0063979625702,None,None,None,1320.5405827650404,text_03,116,1,1,1,Reading_Baseline_main_no_click,None,ist,,,,,OA02,001,no,1500,2000,259,338,424,2024-08-26_08h51.13.528,EXNAT_3_fMRI_Psychopy2023.1.3,2023.1.3,74.99175758355952,
0,0,0,0,,,,,,,,,,,#F989A2,943.3551180362701,177.34024596214294,None,None,None,1500.0,text_03,117,1,1,1,Reading_Baseline_main_no_click,None,bisher,,,,,OA02,001,no,1500,2000,259,338,424,2024-08-26_08h51.13.528,EXNAT_3_fMRI_Psychopy2023.1.3,2023.1.3,74.99175758355952,
0,0,0,0,,,,,,,,,,,#88BA3F,944.860888004303,178.84601593017578,None,None,None,1320.5405827650404,text_03,118,1,1,1,Reading_Baseline_main_no_click,None,das,,,,,OA02,001,no,1500,2000,259,338,424,2024-08-26_08h51.13.528,EXNAT_3_fMRI_Psychopy2023.1.3,2023.1.3,74.99175758355952,
0,0,0,0,,,,,,,,,,,#D292F3,946.1932830810547,180.1784110069275,None,None,None,1500.0,text_03,119,1,1,1,Reading_Baseline_main_no_click,None,einzige,,,,,OA02,001,no,1500,2000,259,338,424,2024-08-26_08h51.13.528,EXNAT_3_fMRI_Psychopy2023.1.3,2023.1.3,74.99175758355952,
0,0,0,0,,,,,,,,,,,#88BA3F,947.699499130249,181.68462705612183,None,None,None,1500.0,text_03,120,1,1,1,Reading_Baseline_main_no_click,None,bekannte,,,,,OA02,001,no,1500,2000,259,338,424,2024-08-26_08h51.13.528,EXNAT_3_fMRI_Psychopy2023.1.3,2023.1.3,74.99175758355952,
0,0,0,0,,,,,,,,,,,#F989A2,949.2060809135437,183.1912088394165,None,None,None,1500.0,text_03,121,1,1,1,Reading_Baseline_main_no_click,None,Tagebuch,,,,,OA02,001,no,1500,2000,259,338,424,2024-08-26_08h51.13.528,EXNAT_3_fMRI_Psychopy2023.1.3,2023.1.3,74.99175758355952,
0,0,0,0,,,,,,,,,,,#D292F3,950.7115080356598,184.6966359615326,None,None,None,1320.5405827650404,text_03,122,1,1,1,Reading_Baseline_main_no_click,None,von,,,,,OA02,001,no,1500,2000,259,338,424,2024-08-26_08h51.13.528,EXNAT_3_fMRI_Psychopy2023.1.3,2023.1.3,74.99175758355952,
0,0,0,0,,,,,,,,,,,#F989A2,952.0445199012756,186.02964782714844,None,None,None,1452.844419320432,text_03,123,1,1,1,Reading_Baseline_main_no_click,None,einer,,,,,OA02,001,no,1500,2000,259,338,424,2024-08-26_08h51.13.528,EXNAT_3_fMRI_Psychopy2023.1.3,2023.1.3,74.99175758355952,
0,0,0,0,,,,,,,,,,,#D292F3,953.5109179019928,187.4960458278656,None,None,None,1500.0,text_03,124,1,1,1,Reading_Baseline_main_no_click,None,"Person,",,,,,OA02,001,no,1500,2000,259,338,424,2024-08-26_08h51.13.528,EXNAT_3_fMRI_Psychopy2023.1.3,2023.1.3,74.99175758355952,
0,0,0,0,,,,,,,,,,,#2AB7EF,955.0168380737305,189.00196599960327,None,None,None,1320.5405827650404,text_03,125,1,1,1,Reading_Baseline_main_no_click,None,die,,,,,OA02,001,no,1500,2000,259,338,424,2024-08-26_08h51.13.528,EXNAT_3_fMRI_Psychopy2023.1.3,2023.1.3,74.99175758355952,
0,0,0,0,,,,,,,,,,,#2AB7EF,956.3501799106598,190.3353078365326,None,None,None,1500.0,text_03,126,1,1,1,Reading_Baseline_main_no_click,None,während,,,,,OA02,001,no,1500,2000,259,338,424,2024-08-26_08h51.13.528,EXNAT_3_fMRI_Psychopy2023.1.3,2023.1.3,74.99175758355952,
0,0,0,0,,,,,,,,,,,#88BA3F,957.8565399646759,191.8416678905487,None,None,None,1500.0,text_03,127,1,1,1,Reading_Baseline_main_no_click,None,seiner,,,,,OA02,001,no,1500,2000,259,338,424,2024-08-26_08h51.13.528,EXNAT_3_fMRI_Psychopy2023.1.3,2023.1.3,74.99175758355952,
0,0,0,0,,,,,,,,,,,#D292F3,959.3624179363251,193.34754586219788,None,None,None,1500.0,text_03,128,1,1,1,Reading_Baseline_main_no_click,None,letzten,,,,,OA02,001,no,1500,2000,259,338,424,2024-08-26_08h51.13.528,EXNAT_3_fMRI_Psychopy2023.1.3,2023.1.3,74.99175758355952,
0,0,0,0,,,,,,,,,,,#88BA3F,960.8682630062103,194.85339093208313,None,None,None,1452.844419320432,text_03,129,1,1,1,Reading_Baseline_main_no_click,None,Jahre,,,,,OA02,001,no,1500,2000,259,338,424,2024-08-26_08h51.13.528,EXNAT_3_fMRI_Psychopy2023.1.3,2023.1.3,74.99175758355952,
0,0,0,0,,,,,,,,,,,#D292F3,962.3340709209442,196.31919884681702,None,None,None,1320.5405827650404,text_03,130,1,1,1,Reading_Baseline_main_no_click,None,eng,,,,,OA02,001,no,1500,2000,259,338,424,2024-08-26_08h51.13.528,EXNAT_3_fMRI_Psychopy2023.1.3,2023.1.3,74.99175758355952,
0,0,0,0,,,,,,,,,,,#2AB7EF,963.6669900417328,197.6521179676056,None,None,None,1320.5405827650404,text_03,131,1,1,1,Reading_Baseline_main_no_click,None,mit,,,,,OA02,001,no,1500,2000,259,338,424,2024-08-26_08h51.13.528,EXNAT_3_fMRI_Psychopy2023.1.3,2023.1.3,74.99175758355952,
0,0,0,0,,,,,,,,,,,#F989A2,965.0,198.9851279258728,None,None,None,1500.0,text_03,132,1,1,1,Reading_Baseline_main_no_click,None,Einstein,,,,,OA02,001,no,1500,2000,259,338,424,2024-08-26_08h51.13.528,EXNAT_3_fMRI_Psychopy2023.1.3,2023.1.3,74.99175758355952,
0,0,0,0,,,,,,,,,,,#2AB7EF,966.5062229633331,200.49135088920593,None,None,None,1500.0,text_03,133,1,1,1,Reading_Baseline_main_no_click,None,befreundet,,,,,OA02,001,no,1500,2000,259,338,424,2024-08-26_08h51.13.528,EXNAT_3_fMRI_Psychopy2023.1.3,2023.1.3,74.99175758355952,
0,0,0,0,,,,,,,,,,,#D292F3,968.0125110149384,201.99763894081116,None,None,None,1395.0502395300516,text_03,134,1,1,1,Reading_Baseline_main_no_click,None,war.,,,,,OA02,001,no,1500,2000,259,338,424,2024-08-26_08h51.13.528,EXNAT_3_fMRI_Psychopy2023.1.3,2023.1.3,74.99175758355952,
0,0,0,0,,,,,,,,,,,#88BA3F,969.411591053009,203.39671897888184,None,None,None,1320.5405827650404,text_03,135,1,1,1,Reading_Baseline_main_no_click,None,Die,,,,,OA02,001,no,1500,2000,259,338,424,2024-08-26_08h51.13.528,EXNAT_3_fMRI_Psychopy2023.1.3,2023.1.3,74.99175758355952,
0,0,0,0,,,,,,,,,,,#2AB7EF,970.7447929382324,204.72992086410522,None,None,None,1295.0,text_03,136,1,1,1,Reading_Baseline_main_no_click,None,22,,,,,OA02,001,no,1500,2000,259,338,424,2024-08-26_08h51.13.528,EXNAT_3_fMRI_Psychopy2023.1.3,2023.1.3,74.99175758355952,
0,0,0,0,,,,,,,,,,,#D292F3,972.050833940506,206.03596186637878,None,None,None,1452.844419320432,text_03,137,1,1,1,Reading_Baseline_main_no_click,None,Jahre,,,,,OA02,001,no,1500,2000,259,338,424,2024-08-26_08h51.13.528,EXNAT_3_fMRI_Psychopy2023.1.3,2023.1.3,74.99175758355952,
0,0,0,0,,,,,,,,,,,#F989A2,973.5175650119781,207.50269293785095,None,None,None,1500.0,text_03,138,1,1,1,Reading_Baseline_main_no_click,None,jüngere,,,,,OA02,001,no,1500,2000,259,338,424,2024-08-26_08h51.13.528,EXNAT_3_fMRI_Psychopy2023.1.3,2023.1.3,74.99175758355952,
0,0,0,0,,,,,,,,,,,#D292F3,975.0230920314789,209.00821995735168,None,None,None,1500.0,text_03,139,1,1,1,Reading_Baseline_main_no_click,None,Johanna,,,,,OA02,001,no,1500,2000,259,338,424,2024-08-26_08h51.13.528,EXNAT_3_fMRI_Psychopy2023.1.3,2023.1.3,74.99175758355952,
0,0,0,0,,,,,,,,,,,#2AB7EF,976.5292661190033,210.5143940448761,None,None,None,1500.0,text_03,140,1,1,1,Reading_Baseline_main_no_click,None,Fantova,,,,,OA02,001,no,1500,2000,259,338,424,2024-08-26_08h51.13.528,EXNAT_3_fMRI_Psychopy2023.1.3,2023.1.3,74.99175758355952,
0,0,0,0,,,,,,,,,,,#2AB7EF,978.035355091095,212.02048301696777,None,None,None,1500.0,text_03,141,1,1,1,Reading_Baseline_main_no_click,None,stammte,,,,,OA02,001,no,1500,2000,259,338,424,2024-08-26_08h51.13.528,EXNAT_3_fMRI_Psychopy2023.1.3,2023.1.3,74.99175758355952,
0,0,0,0,,,,,,,,,,,#88BA3F,979.5418179035187,213.52694582939148,None,None,None,1320.5405827650404,text_03,142,1,1,1,Reading_Baseline_main_no_click,None,wie,,,,,OA02,001,no,1500,2000,259,338,424,2024-08-26_08h51.13.528,EXNAT_3_fMRI_Psychopy2023.1.3,2023.1.3,74.99175758355952,
0,0,0,0,,,,,,,,,,,#88BA3F,980.874459028244,214.85958695411682,None,None,None,1500.0,text_03,143,1,1,1,Reading_Baseline_main_no_click,None,Einstein,,,,,OA02,001,no,1500,2000,259,338,424,2024-08-26_08h51.13.528,EXNAT_3_fMRI_Psychopy2023.1.3,2023.1.3,74.99175758355952,
0,0,0,0,,,,,,,,,,,#D292F3,982.3803749084473,216.36550283432007,None,None,None,1320.5405827650404,text_03,144,1,1,1,Reading_Baseline_main_no_click,None,aus,,,,,OA02,001,no,1500,2000,259,338,424,2024-08-26_08h51.13.528,EXNAT_3_fMRI_Psychopy2023.1.3,2023.1.3,74.99175758355952,
0,0,0,0,,,,,,,,,,,#2AB7EF,983.7136690616608,217.69879698753357,None,None,None,1500.0,text_03,145,1,1,1,Reading_Baseline_main_no_click,None,Europa.,,,,,OA02,001,no,1500,2000,259,338,424,2024-08-26_08h51.13.528,EXNAT_3_fMRI_Psychopy2023.1.3,2023.1.3,74.99175758355952,
0,0,0,0,,,,,,,,,,,#F989A2,985.2193379402161,219.20446586608887,None,None,None,1320.5405827650404,text_03,146,1,1,1,Reading_Baseline_main_no_click,None,Die,,,,,OA02,001,no,1500,2000,259,338,424,2024-08-26_08h51.13.528,EXNAT_3_fMRI_Psychopy2023.1.3,2023.1.3,74.99175758355952,
0,0,0,0,,,,,,,,,,,#88BA3F,986.5523359775543,220.53746390342712,None,None,None,1500.0,text_03,147,1,1,1,Reading_Baseline_main_no_click,None,Eltern,,,,,OA02,001,no,1500,2000,259,338,424,2024-08-26_08h51.13.528,EXNAT_3_fMRI_Psychopy2023.1.3,2023.1.3,74.99175758355952,
0,0,0,0,,,,,,,,,,,#D292F3,988.058464050293,222.04359197616577,None,None,None,1452.844419320432,text_03,148,1,1,1,Reading_Baseline_main_no_click,None,ihres,,,,,OA02,001,no,1500,2000,259,338,424,2024-08-26_08h51.13.528,EXNAT_3_fMRI_Psychopy2023.1.3,2023.1.3,74.99175758355952,
0,0,0,0,,,,,,,,,,,#2AB7EF,989.5246710777283,223.50979900360107,None,None,None,1500.0,text_03,149,1,1,1,Reading_Baseline_main_no_click,None,Ehemannes,,,,,OA02,001,no,1500,2000,259,338,424,2024-08-26_08h51.13.528,EXNAT_3_fMRI_Psychopy2023.1.3,2023.1.3,74.99175758355952,
0,0,0,0,,,,,,,,,,,#D292F3,991.0310649871826,225.01619291305542,None,None,None,1395.0502395300516,text_03,150,1,1,1,Reading_Baseline_main_no_click,None,Otto,,,,,OA02,001,no,1500,2000,259,338,424,2024-08-26_08h51.13.528,EXNAT_3_fMRI_Psychopy2023.1.3,2023.1.3,74.99175758355952,
0,0,0,0,,,,,,,,,,,#88BA3F,992.4302680492401,226.41539597511292,None,None,None,1452.844419320432,text_03,151,1,1,1,Reading_Baseline_main_no_click,None,Fanta,,,,,OA02,001,no,1500,2000,259,338,424,2024-08-26_08h51.13.528,EXNAT_3_fMRI_Psychopy2023.1.3,2023.1.3,74.99175758355952,
0,0,0,0,,,,,,,,,,,#2AB7EF,993.8967161178589,227.8818440437317,None,None,None,1500.0,text_03,152,1,1,1,Reading_Baseline_main_no_click,None,empfingen,,,,,OA02,001,no,1500,2000,259,338,424,2024-08-26_08h51.13.528,EXNAT_3_fMRI_Psychopy2023.1.3,2023.1.3,74.99175758355952,
0,0,0,0,,,,,,,,,,,#F989A2,995.4024269580841,229.3875548839569,None,None,None,1320.5405827650404,text_03,153,1,1,1,Reading_Baseline_main_no_click,None,vor,,,,,OA02,001,no,1500,2000,259,338,424,2024-08-26_08h51.13.528,EXNAT_3_fMRI_Psychopy2023.1.3,2023.1.3,74.99175758355952,
0,0,0,0,,,,,,,,,,,#D292F3,996.7352590560913,230.7203869819641,None,None,None,1320.5405827650404,text_03,154,1,1,1,Reading_Baseline_main_no_click,None,dem,,,,,OA02,001,no,1500,2000,259,338,424,2024-08-26_08h51.13.528,EXNAT_3_fMRI_Psychopy2023.1.3,2023.1.3,74.99175758355952,
0,0,0,0,,,,,,,,,,,#88BA3F,998.0688030719757,232.0539309978485,None,None,None,1452.844419320432,text_03,155,1,1,1,Reading_Baseline_main_no_click,None,Krieg,,,,,OA02,001,no,1500,2000,259,338,424,2024-08-26_08h51.13.528,EXNAT_3_fMRI_Psychopy2023.1.3,2023.1.3,74.99175758355952,
0,0,0,0,,,,,,,,,,,#F989A2,999.5344440937042,233.51957201957703,None,None,None,1452.844419320432,text_03,156,1,1,1,Reading_Baseline_main_no_click,None,viele,,,,,OA02,001,no,1500,2000,259,338,424,2024-08-26_08h51.13.528,EXNAT_3_fMRI_Psychopy2023.1.3,2023.1.3,74.99175758355952,
0,0,0,0,,,,,,,,,,,#88BA3F,1001.00110912323,234.98623704910278,None,None,None,1500.0,text_03,157,1,1,1,Reading_Baseline_main_no_click,None,berühmte,,,,,OA02,001,no,1500,2000,259,338,424,2024-08-26_08h51.13.528,EXNAT_3_fMRI_Psychopy2023.1.3,2023.1.3,74.99175758355952,
0,0,0,0,,,,,,,,,,,#D292F3,1002.506679058075,236.49180698394775,None,None,None,1452.844419320432,text_03,158,1,1,1,Reading_Baseline_main_no_click,None,Gäste,,,,,OA02,001,no,1500,2000,259,338,424,2024-08-26_08h51.13.528,EXNAT_3_fMRI_Psychopy2023.1.3,2023.1.3,74.99175758355952,
0,0,0,0,,,,,,,,,,,#D292F3,1003.9726929664612,237.95782089233398,None,None,None,1295.0,text_03,159,1,1,1,Reading_Baseline_main_no_click,None,in,,,,,OA02,001,no,1500,2000,259,338,424,2024-08-26_08h51.13.528,EXNAT_3_fMRI_Psychopy2023.1.3,2023.1.3,74.99175758355952,
0,0,0,0,,,,,,,,,,,#88BA3F,1005.2790660858154,239.26419401168823,None,None,None,1452.844419320432,text_03,160,1,1,1,Reading_Baseline_main_no_click,None,ihrem,,,,,OA02,001,no,1500,2000,259,338,424,2024-08-26_08h51.13.528,EXNAT_3_fMRI_Psychopy2023.1.3,2023.1.3,74.99175758355952,
0,0,0,0,,,,,,,,,,,#2AB7EF,1006.745255947113,240.73038387298584,None,None,None,1500.0,text_03,161,1,1,1,Reading_Baseline_main_no_click,None,Salon.,,,,,OA02,001,no,1500,2000,259,338,424,2024-08-26_08h51.13.528,EXNAT_3_fMRI_Psychopy2023.1.3,2023.1.3,74.99175758355952,
0,0,0,0,,,,,,,,,,,#F989A2,1008.2514889240265,242.2366168498993,None,None,None,1452.844419320432,text_03,162,1,1,1,Reading_Baseline_main_no_click,None,Neben,,,,,OA02,001,no,1500,2000,259,338,424,2024-08-26_08h51.13.528,EXNAT_3_fMRI_Psychopy2023.1.3,2023.1.3,74.99175758355952,
0,0,0,0,,,,,,,,,,,#2AB7EF,1009.7175641059875,243.70269203186035,None,None,None,1500.0,text_03,163,1,1,1,Reading_Baseline_main_no_click,None,Einstein,,,,,OA02,001,no,1500,2000,259,338,424,2024-08-26_08h51.13.528,EXNAT_3_fMRI_Psychopy2023.1.3,2023.1.3,74.99175758355952,
0,0,0,0,,,,,,,,,,,#D292F3,1011.223680973053,245.20880889892578,None,None,None,1500.0,text_03,164,1,1,1,Reading_Baseline_main_no_click,None,zählte,,,,,OA02,001,no,1500,2000,259,338,424,2024-08-26_08h51.13.528,EXNAT_3_fMRI_Psychopy2023.1.3,2023.1.3,74.99175758355952,
0,0,0,0,,,,,,,,,,,#F989A2,1012.729672908783,246.71480083465576,None,None,None,1395.0502395300516,text_03,165,1,1,1,Reading_Baseline_main_no_click,None,dazu,,,,,OA02,001,no,1500,2000,259,338,424,2024-08-26_08h51.13.528,EXNAT_3_fMRI_Psychopy2023.1.3,2023.1.3,74.99175758355952,
0,0,0,0,,,,,,,,,,,#88BA3F,1014.1294620037079,248.1145899295807,None,None,None,1395.0502395300516,text_03,166,1,1,1,Reading_Baseline_main_no_click,None,auch,,,,,OA02,001,no,1500,2000,259,338,424,2024-08-26_08h51.13.528,EXNAT_3_fMRI_Psychopy2023.1.3,2023.1.3,74.99175758355952,
0,0,0,0,,,,,,,,,,,#F989A2,1015.528783082962,249.51391100883484,None,None,None,1452.844419320432,text_03,167,1,1,1,Reading_Baseline_main_no_click,None,Franz,,,,,OA02,001,no,1500,2000,259,338,424,2024-08-26_08h51.13.528,EXNAT_3_fMRI_Psychopy2023.1.3,2023.1.3,74.99175758355952,
0,0,0,0,,,,,,,,,,,#D292F3,1016.9951729774475,250.9803009033203,None,None,None,1500.0,text_03,168,1,1,1,Reading_Baseline_main_no_click,None,Kafka.,,,,,OA02,001,no,1500,2000,259,338,424,2024-08-26_08h51.13.528,EXNAT_3_fMRI_Psychopy2023.1.3,2023.1.3,74.99175758355952,
0,0,0,0,,,,,,,,,,,#D292F3,1018.501275062561,252.48640298843384,None,None,None,1500.0,text_03,169,1,1,1,Reading_Baseline_main_no_click,None,Johanna,,,,,OA02,001,no,1500,2000,259,338,424,2024-08-26_08h51.13.528,EXNAT_3_fMRI_Psychopy2023.1.3,2023.1.3,74.99175758355952,
0,0,0,0,,,,,,,,,,,#F989A2,1020.0072770118713,253.99240493774414,None,None,None,1500.0,text_03,170,1,1,1,Reading_Baseline_main_no_click,None,Fantova,,,,,OA02,001,no,1500,2000,259,338,424,2024-08-26_08h51.13.528,EXNAT_3_fMRI_Psychopy2023.1.3,2023.1.3,74.99175758355952,
0,0,0,0,,,,,,,,,,,#D292F3,1021.513503074646,255.4986310005188,None,None,None,1320.5405827650404,text_03,171,1,1,1,Reading_Baseline_main_no_click,None,war,,,,,OA02,001,no,1500,2000,259,338,424,2024-08-26_08h51.13.528,EXNAT_3_fMRI_Psychopy2023.1.3,2023.1.3,74.99175758355952,
0,0,0,0,,,,,,,,,,,#2AB7EF,1022.8463819026947,256.8315098285675,None,None,None,1320.5405827650404,text_03,172,1,1,1,Reading_Baseline_main_no_click,None,für,,,,,OA02,001,no,1500,2000,259,338,424,2024-08-26_08h51.13.528,EXNAT_3_fMRI_Psychopy2023.1.3,2023.1.3,74.99175758355952,
0,0,0,0,,,,,,,,,,,#D292F3,1024.1793920993805,258.1645200252533,None,None,None,1500.0,text_03,173,1,1,1,Reading_Baseline_main_no_click,None,Einstein,,,,,OA02,001,no,1500,2000,259,338,424,2024-08-26_08h51.13.528,EXNAT_3_fMRI_Psychopy2023.1.3,2023.1.3,74.99175758355952,
0,0,0,0,,,,,,,,,,,#88BA3F,1025.6852219104767,259.6703498363495,None,None,None,1452.844419320432,text_03,174,1,1,1,Reading_Baseline_main_no_click,None,daher,,,,,OA02,001,no,1500,2000,259,338,424,2024-08-26_08h51.13.528,EXNAT_3_fMRI_Psychopy2023.1.3,2023.1.3,74.99175758355952,
0,0,0,0,,,,,,,,,,,#F989A2,1027.151221036911,261.1363489627838,None,None,None,1320.5405827650404,text_03,175,1,1,1,Reading_Baseline_main_no_click,None,ein,,,,,OA02,001,no,1500,2000,259,338,424,2024-08-26_08h51.13.528,EXNAT_3_fMRI_Psychopy2023.1.3,2023.1.3,74.99175758355952,
0,0,0,0,,,,,,,,,,,#2AB7EF,1028.4844489097595,262.4695768356323,None,None,None,1395.0502395300516,text_03,176,1,1,1,Reading_Baseline_main_no_click,None,Teil,,,,,OA02,001,no,1500,2000,259,338,424,2024-08-26_08h51.13.528,EXNAT_3_fMRI_Psychopy2023.1.3,2023.1.3,74.99175758355952,
0,0,0,0,,,,,,,,,,,#D292F3,1029.8840210437775,263.86914896965027,None,None,None,1320.5405827650404,text_03,177,1,1,1,Reading_Baseline_main_no_click,None,der,,,,,OA02,001,no,1500,2000,259,338,424,2024-08-26_08h51.13.528,EXNAT_3_fMRI_Psychopy2023.1.3,2023.1.3,74.99175758355952,
0,0,0,0,,,,,,,,,,,#88BA3F,1031.2166011333466,265.20172905921936,None,None,None,1452.844419320432,text_03,178,1,1,1,Reading_Baseline_main_no_click,None,alten,,,,,OA02,001,no,1500,2000,259,338,424,2024-08-26_08h51.13.528,EXNAT_3_fMRI_Psychopy2023.1.3,2023.1.3,74.99175758355952,
0,0,0,0,,,,,,,,,,,#D292F3,1032.6833460330963,266.6684739589691,None,None,None,1452.844419320432,text_03,179,1,1,1,Reading_Baseline_main_no_click,None,Welt.,,,,,OA02,001,no,1500,2000,259,338,424,2024-08-26_08h51.13.528,EXNAT_3_fMRI_Psychopy2023.1.3,2023.1.3,74.99175758355952,
0,0,0,0,,,,,,,,,,,#F989A2,1034.1487920284271,268.1339199542999,None,None,None,1320.5405827650404,text_03,180,1,1,1,Reading_Baseline_main_no_click,None,Sie,,,,,OA02,001,no,1500,2000,259,338,424,2024-08-26_08h51.13.528,EXNAT_3_fMRI_Psychopy2023.1.3,2023.1.3,74.99175758355952,
0,0,0,0,,,,,,,,,,,#F989A2,1035.4820249080658,269.4671528339386,None,None,None,1320.5405827650404,text_03,181,1,1,1,Reading_Baseline_main_no_click,None,war,,,,,OA02,001,no,1500,2000,259,338,424,2024-08-26_08h51.13.528,EXNAT_3_fMRI_Psychopy2023.1.3,2023.1.3,74.99175758355952,
0,0,0,0,,,,,,,,,,,#2AB7EF,1036.8144719600677,270.79959988594055,None,None,None,1395.0502395300516,text_03,182,1,1,1,Reading_Baseline_main_no_click,None,eine,,,,,OA02,001,no,1500,2000,259,338,424,2024-08-26_08h51.13.528,EXNAT_3_fMRI_Psychopy2023.1.3,2023.1.3,74.99175758355952,
0,0,0,0,,,,,,,,,,,#D292F3,1038.2147469520569,272.1998748779297,None,None,None,1500.0,text_03,183,1,1,1,Reading_Baseline_main_no_click,None,Verbindung,,,,,OA02,001,no,1500,2000,259,338,424,2024-08-26_08h51.13.528,EXNAT_3_fMRI_Psychopy2023.1.3,2023.1.3,74.99175758355952,
0,0,0,0,,,,,,,,,,,#2AB7EF,1039.7200889587402,273.70521688461304,None,None,None,1295.0,text_03,184,1,1,1,Reading_Baseline_main_no_click,None,zu,,,,,OA02,001,no,1500,2000,259,338,424,2024-08-26_08h51.13.528,EXNAT_3_fMRI_Psychopy2023.1.3,2023.1.3,74.99175758355952,
0,0,0,0,,,,,,,,,,,#F989A2,1041.026533126831,275.01166105270386,None,None,None,1500.0,text_03,185,1,1,1,Reading_Baseline_main_no_click,None,"Dingen,",,,,,OA02,001,no,1500,2000,259,338,424,2024-08-26_08h51.13.528,EXNAT_3_fMRI_Psychopy2023.1.3,2023.1.3,74.99175758355952,
0,0,0,0,,,,,,,,,,,#88BA3F,1042.5324869155884,276.5176148414612,None,None,None,1320.5405827650404,text_03,186,1,1,1,Reading_Baseline_main_no_click,None,die,,,,,OA02,001,no,1500,2000,259,338,424,2024-08-26_08h51.13.528,EXNAT_3_fMRI_Psychopy2023.1.3,2023.1.3,74.99175758355952,
0,0,0,0,,,,,,,,,,,#2AB7EF,1043.865294933319,277.8504228591919,None,None,None,1295.0,text_03,187,1,1,1,Reading_Baseline_main_no_click,None,er,,,,,OA02,001,no,1500,2000,259,338,424,2024-08-26_08h51.13.528,EXNAT_3_fMRI_Psychopy2023.1.3,2023.1.3,74.99175758355952,
0,0,0,0,,,,,,,,,,,#D292F3,1045.1717810630798,279.15690898895264,None,None,None,1500.0,text_03,188,1,1,1,Reading_Baseline_main_no_click,None,vermisste.,,,,,OA02,001,no,1500,2000,259,338,424,2024-08-26_08h51.13.528,EXNAT_3_fMRI_Psychopy2023.1.3,2023.1.3,74.99175758355952,
0,0,0,0,,,,,,,,,,,#D292F3,1046.6780800819397,280.6632080078125,None,None,None,1295.0,text_03,189,1,1,1,Reading_Baseline_main_no_click,None,In,,,,,OA02,001,no,1500,2000,259,338,424,2024-08-26_08h51.13.528,EXNAT_3_fMRI_Psychopy2023.1.3,2023.1.3,74.99175758355952,
0,0,0,0,,,,,,,,,,,#88BA3F,1047.984088897705,281.9692168235779,None,None,None,1500.0,text_03,190,1,1,1,Reading_Baseline_main_no_click,None,Fantovas,,,,,OA02,001,no,1500,2000,259,338,424,2024-08-26_08h51.13.528,EXNAT_3_fMRI_Psychopy2023.1.3,2023.1.3,74.99175758355952,
0,0,0,0,,,,,,,,,,,#F989A2,1049.4905450344086,283.4756729602814,None,None,None,1500.0,text_03,191,1,1,1,Reading_Baseline_main_no_click,None,Manuskript,,,,,OA02,001,no,1500,2000,259,338,424,2024-08-26_08h51.13.528,EXNAT_3_fMRI_Psychopy2023.1.3,2023.1.3,74.99175758355952,
0,0,0,0,,,,,,,,,,,#88BA3F,1050.9965040683746,284.98163199424744,None,None,None,1500.0,text_03,192,1,1,1,Reading_Baseline_main_no_click,None,erscheint,,,,,OA02,001,no,1500,2000,259,338,424,2024-08-26_08h51.13.528,EXNAT_3_fMRI_Psychopy2023.1.3,2023.1.3,74.99175758355952,
0,0,0,0,,,,,,,,,,,#88BA3F,1052.5025129318237,286.48764085769653,None,None,None,1500.0,text_03,193,1,1,1,Reading_Baseline_main_no_click,None,Einstein,,,,,OA02,001,no,1500,2000,259,338,424,2024-08-26_08h51.13.528,EXNAT_3_fMRI_Psychopy2023.1.3,2023.1.3,74.99175758355952,
0,0,0,0,,,,,,,,,,,#2AB7EF,1054.0084891319275,287.9936170578003,None,None,None,1320.5405827650404,text_03,194,1,1,1,Reading_Baseline_main_no_click,None,als,,,,,OA02,001,no,1500,2000,259,338,424,2024-08-26_08h51.13.528,EXNAT_3_fMRI_Psychopy2023.1.3,2023.1.3,74.99175758355952,
0,0,0,0,,,,,,,,,,,#88BA3F,1055.3415729999542,289.326700925827,None,None,None,1500.0,text_03,195,1,1,1,Reading_Baseline_main_no_click,None,komischer,,,,,OA02,001,no,1500,2000,259,338,424,2024-08-26_08h51.13.528,EXNAT_3_fMRI_Psychopy2023.1.3,2023.1.3,74.99175758355952,
0,0,0,0,,,,,,,,,,,#F989A2,1056.848382949829,290.8335108757019,None,None,None,1500.0,text_03,196,1,1,1,Reading_Baseline_main_no_click,None,Eigenbrötler.,,,,,OA02,001,no,1500,2000,259,338,424,2024-08-26_08h51.13.528,EXNAT_3_fMRI_Psychopy2023.1.3,2023.1.3,74.99175758355952,
0,0,0,0,,,,,,,,,,,#F989A2,1058.35418009758,292.33930802345276,None,None,None,1500.0,text_03,197,1,1,1,Reading_Baseline_main_no_click,None,Zugleich,,,,,OA02,001,no,1500,2000,259,338,424,2024-08-26_08h51.13.528,EXNAT_3_fMRI_Psychopy2023.1.3,2023.1.3,74.99175758355952,
0,0,0,0,,,,,,,,,,,#D292F3,1059.8599870204926,293.84511494636536,None,None,None,1500.0,text_03,198,1,1,1,Reading_Baseline_main_no_click,None,beschreibt,,,,,OA02,001,no,1500,2000,259,338,424,2024-08-26_08h51.13.528,EXNAT_3_fMRI_Psychopy2023.1.3,2023.1.3,74.99175758355952,
0,0,0,0,,,,,,,,,,,#2AB7EF,1061.3658380508423,295.3509659767151,None,None,None,1320.5405827650404,text_03,199,1,1,1,Reading_Baseline_main_no_click,None,sie,,,,,OA02,001,no,1500,2000,259,338,424,2024-08-26_08h51.13.528,EXNAT_3_fMRI_Psychopy2023.1.3,2023.1.3,74.99175758355952,
0,0,0,0,,,,,,,,,,,#F989A2,1062.6986911296844,296.68381905555725,None,None,None,1320.5405827650404,text_03,200,1,1,1,Reading_Baseline_main_no_click,None,ihn,,,,,OA02,001,no,1500,2000,259,338,424,2024-08-26_08h51.13.528,EXNAT_3_fMRI_Psychopy2023.1.3,2023.1.3,74.99175758355952,
0,0,0,0,,,,,,,,,,,#2AB7EF,1064.0316610336304,298.0167889595032,None,None,None,1395.0502395300516,text_03,201,1,1,1,Reading_Baseline_main_no_click,None,aber,,,,,OA02,001,no,1500,2000,259,338,424,2024-08-26_08h51.13.528,EXNAT_3_fMRI_Psychopy2023.1.3,2023.1.3,74.99175758355952,
0,0,0,0,,,,,,,,,,,#D292F3,1065.4310939311981,299.4162218570709,None,None,None,1395.0502395300516,text_03,202,1,1,1,Reading_Baseline_main_no_click,None,auch,,,,,OA02,001,no,1500,2000,259,338,424,2024-08-26_08h51.13.528,EXNAT_3_fMRI_Psychopy2023.1.3,2023.1.3,74.99175758355952,
0,0,0,0,,,,,,,,,,,#88BA3F,1066.830570936203,300.8156988620758,None,None,None,1320.5405827650404,text_03,203,1,1,1,Reading_Baseline_main_no_click,None,als,,,,,OA02,001,no,1500,2000,259,338,424,2024-08-26_08h51.13.528,EXNAT_3_fMRI_Psychopy2023.1.3,2023.1.3,74.99175758355952,
0,0,0,0,,,,,,,,,,,#2AB7EF,1068.163780927658,302.1489088535309,None,None,None,1500.0,text_03,204,1,1,1,Reading_Baseline_main_no_click,None,"Menschenfreund,",,,,,OA02,001,no,1500,2000,259,338,424,2024-08-26_08h51.13.528,EXNAT_3_fMRI_Psychopy2023.1.3,2023.1.3,74.99175758355952,
0,0,0,0,,,,,,,,,,,#2AB7EF,1069.6685409545898,303.65366888046265,None,None,None,1320.5405827650404,text_03,205,1,1,1,Reading_Baseline_main_no_click,None,der,,,,,OA02,001,no,1500,2000,259,338,424,2024-08-26_08h51.13.528,EXNAT_3_fMRI_Psychopy2023.1.3,2023.1.3,74.99175758355952,
0,0,0,0,,,,,,,,,,,#F989A2,1071.0010850429535,304.9862129688263,None,None,None,1500.0,text_03,206,1,1,1,Reading_Baseline_main_no_click,None,vielen,,,,,OA02,001,no,1500,2000,259,338,424,2024-08-26_08h51.13.528,EXNAT_3_fMRI_Psychopy2023.1.3,2023.1.3,74.99175758355952,
0,0,0,0,,,,,,,,,,,#2AB7EF,1072.5077850818634,306.4929130077362,None,None,None,1500.0,text_03,207,1,1,1,Reading_Baseline_main_no_click,None,seiner,,,,,OA02,001,no,1500,2000,259,338,424,2024-08-26_08h51.13.528,EXNAT_3_fMRI_Psychopy2023.1.3,2023.1.3,74.99175758355952,
0,0,0,0,,,,,,,,,,,#88BA3F,1074.013731956482,307.99885988235474,None,None,None,1500.0,text_03,208,1,1,1,Reading_Baseline_main_no_click,None,Freunde,,,,,OA02,001,no,1500,2000,259,338,424,2024-08-26_08h51.13.528,EXNAT_3_fMRI_Psychopy2023.1.3,2023.1.3,74.99175758355952,
0,0,0,0,,,,,,,,,,,#D292F3,1075.519534111023,309.50466203689575,None,None,None,1320.5405827650404,text_03,209,1,1,1,Reading_Baseline_main_no_click,None,bei,,,,,OA02,001,no,1500,2000,259,338,424,2024-08-26_08h51.13.528,EXNAT_3_fMRI_Psychopy2023.1.3,2023.1.3,74.99175758355952,
0,0,0,0,,,,,,,,,,,#2AB7EF,1076.853313922882,310.8384418487549,None,None,None,1500.0,text_03,210,1,1,1,Reading_Baseline_main_no_click,None,persönlichen,,,,,OA02,001,no,1500,2000,259,338,424,2024-08-26_08h51.13.528,EXNAT_3_fMRI_Psychopy2023.1.3,2023.1.3,74.99175758355952,
0,0,0,0,,,,,,,,,,,#88BA3F,1078.3595659732819,312.34469389915466,None,None,None,1500.0,text_03,211,1,1,1,Reading_Baseline_main_no_click,None,Problemen,,,,,OA02,001,no,1500,2000,259,338,424,2024-08-26_08h51.13.528,EXNAT_3_fMRI_Psychopy2023.1.3,2023.1.3,74.99175758355952,
0,0,0,0,,,,,,,,,,,#D292F3,1079.8649260997772,313.85005402565,None,None,None,1452.844419320432,text_03,212,1,1,1,Reading_Baseline_main_no_click,None,half.,,,,,OA02,001,no,1500,2000,259,338,424,2024-08-26_08h51.13.528,EXNAT_3_fMRI_Psychopy2023.1.3,2023.1.3,74.99175758355952,
0,0,0,0,,,,,,,,,,,#2AB7EF,1081.3314208984375,315.3165488243103,None,None,None,1320.5405827650404,text_03,213,1,1,1,Reading_Baseline_main_no_click,None,Und,,,,,OA02,001,no,1500,2000,259,338,424,2024-08-26_08h51.13.528,EXNAT_3_fMRI_Psychopy2023.1.3,2023.1.3,74.99175758355952,
0,0,0,0,,,,,,,,,,,#88BA3F,1082.664029121399,316.64915704727173,None,None,None,1395.0502395300516,text_03,214,1,1,1,Reading_Baseline_main_no_click,None,doch,,,,,OA02,001,no,1500,2000,259,338,424,2024-08-26_08h51.13.528,EXNAT_3_fMRI_Psychopy2023.1.3,2023.1.3,74.99175758355952,
0,0,0,0,,,,,,,,,,,#F989A2,1084.0637760162354,318.04890394210815,None,None,None,1500.0,text_03,215,1,1,1,Reading_Baseline_main_no_click,None,fühlte,,,,,OA02,001,no,1500,2000,259,338,424,2024-08-26_08h51.13.528,EXNAT_3_fMRI_Psychopy2023.1.3,2023.1.3,74.99175758355952,
0,0,0,0,,,,,,,,,,,#F989A2,1085.5693550109863,319.55448293685913,None,None,None,1395.0502395300516,text_03,216,1,1,1,Reading_Baseline_main_no_click,None,sich,,,,,OA02,001,no,1500,2000,259,338,424,2024-08-26_08h51.13.528,EXNAT_3_fMRI_Psychopy2023.1.3,2023.1.3,74.99175758355952,
0,0,0,0,,,,,,,,,,,#D292F3,1086.9693241119385,320.9544520378113,None,None,None,1500.0,text_03,217,1,1,1,Reading_Baseline_main_no_click,None,Einstein,,,,,OA02,001,no,1500,2000,259,338,424,2024-08-26_08h51.13.528,EXNAT_3_fMRI_Psychopy2023.1.3,2023.1.3,74.99175758355952,
0,0,0,0,,,,,,,,,,,#2AB7EF,1088.4750080108643,322.46013593673706,None,None,None,1320.5405827650404,text_03,218,1,1,1,Reading_Baseline_main_no_click,None,nie,,,,,OA02,001,no,1500,2000,259,338,424,2024-08-26_08h51.13.528,EXNAT_3_fMRI_Psychopy2023.1.3,2023.1.3,74.99175758355952,
0,0,0,0,,,,,,,,,,,#F989A2,1089.8085041046143,323.79363203048706,None,None,None,1500.0,text_03,219,1,1,1,Reading_Baseline_main_no_click,None,wirklich,,,,,OA02,001,no,1500,2000,259,338,424,2024-08-26_08h51.13.528,EXNAT_3_fMRI_Psychopy2023.1.3,2023.1.3,74.99175758355952,
0,0,0,0,,,,,,,,,,,#D292F3,1091.3141460418701,325.2992739677429,None,None,None,1320.5405827650404,text_03,220,1,1,1,Reading_Baseline_main_no_click,None,mit,,,,,OA02,001,no,1500,2000,259,338,424,2024-08-26_08h51.13.528,EXNAT_3_fMRI_Psychopy2023.1.3,2023.1.3,74.99175758355952,
0,0,0,0,,,,,,,,,,,#88BA3F,1092.6472580432892,326.632385969162,None,None,None,1500.0,text_03,221,1,1,1,Reading_Baseline_main_no_click,None,seinen,,,,,OA02,001,no,1500,2000,259,338,424,2024-08-26_08h51.13.528,EXNAT_3_fMRI_Psychopy2023.1.3,2023.1.3,74.99175758355952,
0,0,0,0,,,,,,,,,,,#2AB7EF,1094.1537940502167,328.1389219760895,None,None,None,1500.0,text_03,222,1,1,1,Reading_Baseline_main_no_click,None,Mitmenschen,,,,,OA02,001,no,1500,2000,259,338,424,2024-08-26_08h51.13.528,EXNAT_3_fMRI_Psychopy2023.1.3,2023.1.3,74.99175758355952,
0,0,0,0,,,,,,,,,,,#88BA3F,1095.6594579219818,329.6445858478546,None,None,None,1500.0,text_03,223,1,1,1,Reading_Baseline_main_no_click,None,verbunden.,,,,,OA02,001,no,1500,2000,259,338,424,2024-08-26_08h51.13.528,EXNAT_3_fMRI_Psychopy2023.1.3,2023.1.3,74.99175758355952,
0,0,0,0,,,,,,,,,,,#F989A2,1097.1655440330505,331.15067195892334,None,None,None,1500.0,text_03,224,1,1,1,Reading_Baseline_main_no_click,None,Angesichts,,,,,OA02,001,no,1500,2000,259,338,424,2024-08-26_08h51.13.528,EXNAT_3_fMRI_Psychopy2023.1.3,2023.1.3,74.99175758355952,
0,0,0,0,,,,,,,,,,,#F989A2,1098.6718010902405,332.6569290161133,None,None,None,1500.0,text_03,225,1,1,1,Reading_Baseline_main_no_click,None,seiner,,,,,OA02,001,no,1500,2000,259,338,424,2024-08-26_08h51.13.528,EXNAT_3_fMRI_Psychopy2023.1.3,2023.1.3,74.99175758355952,
0,0,0,0,,,,,,,,,,,#88BA3F,1100.1777319908142,334.162859916687,None,None,None,1500.0,text_03,226,1,1,1,Reading_Baseline_main_no_click,None,eigenen,,,,,OA02,001,no,1500,2000,259,338,424,2024-08-26_08h51.13.528,EXNAT_3_fMRI_Psychopy2023.1.3,2023.1.3,74.99175758355952,
0,0,0,0,,,,,,,,,,,#2AB7EF,1101.6841669082642,335.66929483413696,None,None,None,1500.0,text_03,227,1,1,1,Reading_Baseline_main_no_click,None,gescheiterten,,,,,OA02,001,no,1500,2000,259,338,424,2024-08-26_08h51.13.528,EXNAT_3_fMRI_Psychopy2023.1.3,2023.1.3,74.99175758355952,
0,0,0,0,,,,,,,,,,,#D292F3,1103.1901149749756,337.1752429008484,None,None,None,1500.0,text_03,228,1,1,1,Reading_Baseline_main_no_click,None,Beziehungen,,,,,OA02,001,no,1500,2000,259,338,424,2024-08-26_08h51.13.528,EXNAT_3_fMRI_Psychopy2023.1.3,2023.1.3,74.99175758355952,
0,0,0,0,,,,,,,,,,,#D292F3,1104.6962230205536,338.6813509464264,None,None,None,1500.0,text_03,229,1,1,1,Reading_Baseline_main_no_click,None,betrachtete,,,,,OA02,001,no,1500,2000,259,338,424,2024-08-26_08h51.13.528,EXNAT_3_fMRI_Psychopy2023.1.3,2023.1.3,74.99175758355952,
0,0,0,0,,,,,,,,,,,#2AB7EF,1106.2021179199219,340.1872458457947,None,None,None,1295.0,text_03,230,1,1,1,Reading_Baseline_main_no_click,None,er,,,,,OA02,001,no,1500,2000,259,338,424,2024-08-26_08h51.13.528,EXNAT_3_fMRI_Psychopy2023.1.3,2023.1.3,74.99175758355952,
0,0,0,0,,,,,,,,,,,#F989A2,1107.5087220668793,341.4938499927521,None,None,None,1320.5405827650404,text_03,231,1,1,1,Reading_Baseline_main_no_click,None,die,,,,,OA02,001,no,1500,2000,259,338,424,2024-08-26_08h51.13.528,EXNAT_3_fMRI_Psychopy2023.1.3,2023.1.3,74.99175758355952,
0,0,0,0,,,,,,,,,,,#88BA3F,1108.8416419029236,342.8267698287964,None,None,None,1500.0,text_03,232,1,1,1,Reading_Baseline_main_no_click,None,Beziehungen,,,,,OA02,001,no,1500,2000,259,338,424,2024-08-26_08h51.13.528,EXNAT_3_fMRI_Psychopy2023.1.3,2023.1.3,74.99175758355952,
0,0,0,0,,,,,,,,,,,#F989A2,1110.347461938858,344.33258986473083,None,None,None,1500.0,text_03,233,1,1,1,Reading_Baseline_main_no_click,None,seiner,,,,,OA02,001,no,1500,2000,259,338,424,2024-08-26_08h51.13.528,EXNAT_3_fMRI_Psychopy2023.1.3,2023.1.3,74.99175758355952,
0,0,0,0,,,,,,,,,,,#D292F3,1111.8536460399628,345.83877396583557,None,None,None,1500.0,text_03,234,1,1,1,Reading_Baseline_main_no_click,None,Freunde,,,,,OA02,001,no,1500,2000,259,338,424,2024-08-26_08h51.13.528,EXNAT_3_fMRI_Psychopy2023.1.3,2023.1.3,74.99175758355952,
0,0,0,0,,,,,,,,,,,#F989A2,1113.3596019744873,347.3447299003601,None,None,None,1320.5405827650404,text_03,235,1,1,1,Reading_Baseline_main_no_click,None,mit,,,,,OA02,001,no,1500,2000,259,338,424,2024-08-26_08h51.13.528,EXNAT_3_fMRI_Psychopy2023.1.3,2023.1.3,74.99175758355952,
0,0,0,0,,,,,,,,,,,#88BA3F,1114.6929779052734,348.67810583114624,None,None,None,1500.0,text_03,236,1,1,1,Reading_Baseline_main_no_click,None,spöttischer,,,,,OA02,001,no,1500,2000,259,338,424,2024-08-26_08h51.13.528,EXNAT_3_fMRI_Psychopy2023.1.3,2023.1.3,74.99175758355952,
0,0,0,0,,,,,,,,,,,#F989A2,1116.1990060806274,350.18413400650024,None,None,None,1500.0,text_03,237,1,1,1,Reading_Baseline_main_no_click,None,Distanz:,,,,,OA02,001,no,1500,2000,259,338,424,2024-08-26_08h51.13.528,EXNAT_3_fMRI_Psychopy2023.1.3,2023.1.3,74.99175758355952,
0,0,0,0,,,,,,,,,,,#2AB7EF,1117.7054839134216,351.69061183929443,None,None,None,1395.0502395300516,text_03,238,1,1,1,Reading_Baseline_main_no_click,None,""Ich,,,,,OA02,001,no,1500,2000,259,338,424,2024-08-26_08h51.13.528,EXNAT_3_fMRI_Psychopy2023.1.3,2023.1.3,74.99175758355952,
0,0,0,0,,,,,,,,,,,#F989A2,1119.1044189929962,353.089546918869,None,None,None,1320.5405827650404,text_03,239,1,1,1,Reading_Baseline_main_no_click,None,war,,,,,OA02,001,no,1500,2000,259,338,424,2024-08-26_08h51.13.528,EXNAT_3_fMRI_Psychopy2023.1.3,2023.1.3,74.99175758355952,
0,0,0,0,,,,,,,,,,,#D292F3,1120.4371900558472,354.42231798171997,None,None,None,1320.5405827650404,text_03,240,1,1,1,Reading_Baseline_main_no_click,None,bei,,,,,OA02,001,no,1500,2000,259,338,424,2024-08-26_08h51.13.528,EXNAT_3_fMRI_Psychopy2023.1.3,2023.1.3,74.99175758355952,
0,0,0,0,,,,,,,,,,,#F989A2,1121.7714929580688,355.75662088394165,None,None,None,1452.844419320432,text_03,241,1,1,1,Reading_Baseline_main_no_click,None,einem,,,,,OA02,001,no,1500,2000,259,338,424,2024-08-26_08h51.13.528,EXNAT_3_fMRI_Psychopy2023.1.3,2023.1.3,74.99175758355952,
0,0,0,0,,,,,,,,,,,#88BA3F,1123.2379190921783,357.22304701805115,None,None,None,1500.0,text_03,242,1,1,1,Reading_Baseline_main_no_click,None,Nachbarn.,,,,,OA02,001,no,1500,2000,259,338,424,2024-08-26_08h51.13.528,EXNAT_3_fMRI_Psychopy2023.1.3,2023.1.3,74.99175758355952,
0,0,0,0,,,,,,,,,,,#D292F3,1124.7436430454254,358.7287709712982,None,None,None,1295.0,text_03,243,1,1,1,Reading_Baseline_main_no_click,None,Es,,,,,OA02,001,no,1500,2000,259,338,424,2024-08-26_08h51.13.528,EXNAT_3_fMRI_Psychopy2023.1.3,2023.1.3,74.99175758355952,
0,0,0,0,,,,,,,,,,,#2AB7EF,1126.05011510849,360.0352430343628,None,None,None,1500.0,text_03,244,1,1,1,Reading_Baseline_main_no_click,None,besteht,,,,,OA02,001,no,1500,2000,259,338,424,2024-08-26_08h51.13.528,EXNAT_3_fMRI_Psychopy2023.1.3,2023.1.3,74.99175758355952,
0,0,0,0,,,,,,,,,,,#D292F3,1127.556165933609,361.5412938594818,None,None,None,1320.5405827650404,text_03,245,1,1,1,Reading_Baseline_main_no_click,None,die,,,,,OA02,001,no,1500,2000,259,338,424,2024-08-26_08h51.13.528,EXNAT_3_fMRI_Psychopy2023.1.3,2023.1.3,74.99175758355952,
0,0,0,0,,,,,,,,,,,#D292F3,1128.889475107193,362.8746030330658,None,None,None,1500.0,text_03,246,1,1,1,Reading_Baseline_main_no_click,None,"Gefahr,",,,,,OA02,001,no,1500,2000,259,338,424,2024-08-26_08h51.13.528,EXNAT_3_fMRI_Psychopy2023.1.3,2023.1.3,74.99175758355952,
0,0,0,0,,,,,,,,,,,#88BA3F,1130.3950119018555,364.38013982772827,None,None,None,1395.0502395300516,text_03,247,1,1,1,Reading_Baseline_main_no_click,None,dass,,,,,OA02,001,no,1500,2000,259,338,424,2024-08-26_08h51.13.528,EXNAT_3_fMRI_Psychopy2023.1.3,2023.1.3,74.99175758355952,
0,0,0,0,,,,,,,,,,,#F989A2,1131.7945110797882,365.779639005661,None,None,None,1395.0502395300516,text_03,248,1,1,1,Reading_Baseline_main_no_click,None,sein,,,,,OA02,001,no,1500,2000,259,338,424,2024-08-26_08h51.13.528,EXNAT_3_fMRI_Psychopy2023.1.3,2023.1.3,74.99175758355952,
0,0,0,0,,,,,,,,,,,#88BA3F,1133.1940240859985,367.17915201187134,None,None,None,1395.0502395300516,text_03,249,1,1,1,Reading_Baseline_main_no_click,None,Sohn,,,,,OA02,001,no,1500,2000,259,338,424,2024-08-26_08h51.13.528,EXNAT_3_fMRI_Psychopy2023.1.3,2023.1.3,74.99175758355952,
0,0,0,0,,,,,,,,,,,#2AB7EF,1134.5939810276031,368.57910895347595,None,None,None,1500.0,text_03,250,1,1,1,Reading_Baseline_main_no_click,None,heiratet."",,,,,OA02,001,no,1500,2000,259,338,424,2024-08-26_08h51.13.528,EXNAT_3_fMRI_Psychopy2023.1.3,2023.1.3,74.99175758355952,
0,0,0,0,,,,,,,,,,,#2AB7EF,1136.1000230312347,370.08515095710754,None,None,None,1500.0,text_03,251,1,1,1,Reading_Baseline_main_no_click,None,Rührend,,,,,OA02,001,no,1500,2000,259,338,424,2024-08-26_08h51.13.528,EXNAT_3_fMRI_Psychopy2023.1.3,2023.1.3,74.99175758355952,
0,0,0,0,,,,,,,,,,,#F989A2,1137.6062080860138,371.5913360118866,None,None,None,1500.0,text_03,252,1,1,1,Reading_Baseline_main_no_click,None,kümmerte,,,,,OA02,001,no,1500,2000,259,338,424,2024-08-26_08h51.13.528,EXNAT_3_fMRI_Psychopy2023.1.3,2023.1.3,74.99175758355952,
0,0,0,0,,,,,,,,,,,#2AB7EF,1139.1119649410248,373.0970928668976,None,None,None,1295.0,text_03,253,1,1,1,Reading_Baseline_main_no_click,None,er,,,,,OA02,001,no,1500,2000,259,338,424,2024-08-26_08h51.13.528,EXNAT_3_fMRI_Psychopy2023.1.3,2023.1.3,74.99175758355952,
0,0,0,0,,,,,,,,,,,#F989A2,1140.4186580181122,374.403785943985,None,None,None,1395.0502395300516,text_03,254,1,1,1,Reading_Baseline_main_no_click,None,sich,,,,,OA02,001,no,1500,2000,259,338,424,2024-08-26_08h51.13.528,EXNAT_3_fMRI_Psychopy2023.1.3,2023.1.3,74.99175758355952,
0,0,0,0,,,,,,,,,,,#D292F3,1141.8178079128265,375.80293583869934,None,None,None,1500.0,text_03,255,1,1,1,Reading_Baseline_main_no_click,None,dagegen,,,,,OA02,001,no,1500,2000,259,338,424,2024-08-26_08h51.13.528,EXNAT_3_fMRI_Psychopy2023.1.3,2023.1.3,74.99175758355952,
0,0,0,0,,,,,,,,,,,#F989A2,1143.3238010406494,377.3089289665222,None,None,None,1295.0,text_03,256,1,1,1,Reading_Baseline_main_no_click,None,um,,,,,OA02,001,no,1500,2000,259,338,424,2024-08-26_08h51.13.528,EXNAT_3_fMRI_Psychopy2023.1.3,2023.1.3,74.99175758355952,
0,0,0,0,,,,,,,,,,,#88BA3F,1144.6299700737,378.61509799957275,None,None,None,1395.0502395300516,text_03,257,1,1,1,Reading_Baseline_main_no_click,None,sein,,,,,OA02,001,no,1500,2000,259,338,424,2024-08-26_08h51.13.528,EXNAT_3_fMRI_Psychopy2023.1.3,2023.1.3,74.99175758355952,
0,0,0,0,,,,,,,,,,,#2AB7EF,1146.0297889709473,380.01491689682007,None,None,None,1500.0,text_03,258,1,1,1,Reading_Baseline_main_no_click,None,"Haustier,",,,,,OA02,001,no,1500,2000,259,338,424,2024-08-26_08h51.13.528,EXNAT_3_fMRI_Psychopy2023.1.3,2023.1.3,74.99175758355952,
0,0,0,0,,,,,,,,,,,#88BA3F,1147.5356380939484,381.52076601982117,None,None,None,1452.844419320432,text_03,259,1,1,1,Reading_Baseline_main_no_click,None,einen,,,,,OA02,001,no,1500,2000,259,338,424,2024-08-26_08h51.13.528,EXNAT_3_fMRI_Psychopy2023.1.3,2023.1.3,74.99175758355952,
0,0,0,0,,,,,,,,,,,#88BA3F,1149.0021359920502,382.987263917923,None,None,None,1500.0,text_03,260,1,1,1,Reading_Baseline_main_no_click,None,deprimierten,,,,,OA02,001,no,1500,2000,259,338,424,2024-08-26_08h51.13.528,EXNAT_3_fMRI_Psychopy2023.1.3,2023.1.3,74.99175758355952,
0,0,0,0,,,,,,,,,,,#2AB7EF,1150.5082740783691,384.49340200424194,None,None,None,1500.0,text_03,261,1,1,1,Reading_Baseline_main_no_click,None,Papagei,,,,,OA02,001,no,1500,2000,259,338,424,2024-08-26_08h51.13.528,EXNAT_3_fMRI_Psychopy2023.1.3,2023.1.3,74.99175758355952,
0,0,0,0,,,,,,,,,,,#D292F3,1152.0142710208893,385.9993989467621,None,None,None,1500.0,text_03,262,1,1,1,Reading_Baseline_main_no_click,None,namens,,,,,OA02,001,no,1500,2000,259,338,424,2024-08-26_08h51.13.528,EXNAT_3_fMRI_Psychopy2023.1.3,2023.1.3,74.99175758355952,
0,0,0,0,,,,,,,,,,,#F989A2,1153.520154953003,387.50528287887573,None,None,None,1452.844419320432,text_03,263,1,1,1,Reading_Baseline_main_no_click,None,Bibo.,,,,,OA02,001,no,1500,2000,259,338,424,2024-08-26_08h51.13.528,EXNAT_3_fMRI_Psychopy2023.1.3,2023.1.3,74.99175758355952,
0,0,0,0,,,,,,,,,,,#D292F3,1154.986347913742,388.97147583961487,None,None,None,1395.0502395300516,text_03,264,1,1,1,Reading_Baseline_main_no_click,None,""Der,,,,,OA02,001,no,1500,2000,259,338,424,2024-08-26_08h51.13.528,EXNAT_3_fMRI_Psychopy2023.1.3,2023.1.3,74.99175758355952,
0,0,0,0,,,,,,,,,,,#2AB7EF,1156.3860940933228,390.37122201919556,None,None,None,1500.0,text_03,265,1,1,1,Reading_Baseline_main_no_click,None,Papagei,,,,,OA02,001,no,1500,2000,259,338,424,2024-08-26_08h51.13.528,EXNAT_3_fMRI_Psychopy2023.1.3,2023.1.3,74.99175758355952,
0,0,0,0,,,,,,,,,,,#88BA3F,1157.8918099403381,391.87693786621094,None,None,None,1320.5405827650404,text_03,266,1,1,1,Reading_Baseline_main_no_click,None,ist,,,,,OA02,001,no,1500,2000,259,338,424,2024-08-26_08h51.13.528,EXNAT_3_fMRI_Psychopy2023.1.3,2023.1.3,74.99175758355952,
0,0,0,0,,,,,,,,,,,#2AB7EF,1159.224709033966,393.20983695983887,None,None,None,1395.0502395300516,text_03,267,1,1,1,Reading_Baseline_main_no_click,None,noch,,,,,OA02,001,no,1500,2000,259,338,424,2024-08-26_08h51.13.528,EXNAT_3_fMRI_Psychopy2023.1.3,2023.1.3,74.99175758355952,
0,0,0,0,,,,,,,,,,,#D292F3,1160.6242139339447,394.6093418598175,None,None,None,1395.0502395300516,text_03,268,1,1,1,Reading_Baseline_main_no_click,None,ganz,,,,,OA02,001,no,1500,2000,259,338,424,2024-08-26_08h51.13.528,EXNAT_3_fMRI_Psychopy2023.1.3,2023.1.3,74.99175758355952,
0,0,0,0,,,,,,,,,,,#88BA3F,1162.0242919921875,396.0094199180603,None,None,None,1500.0,text_03,269,1,1,1,Reading_Baseline_main_no_click,None,verschüchtert.,,,,,OA02,001,no,1500,2000,259,338,424,2024-08-26_08h51.13.528,EXNAT_3_fMRI_Psychopy2023.1.3,2023.1.3,74.99175758355952,
0,0,0,0,,,,,,,,,,,#2AB7EF,1163.5300149917603,397.51514291763306,None,None,None,1295.0,text_03,270,1,1,1,Reading_Baseline_main_no_click,None,Er,,,,,OA02,001,no,1500,2000,259,338,424,2024-08-26_08h51.13.528,EXNAT_3_fMRI_Psychopy2023.1.3,2023.1.3,74.99175758355952,
0,0,0,0,,,,,,,,,,,#88BA3F,1164.8361549377441,398.82128286361694,None,None,None,1320.5405827650404,text_03,271,1,1,1,Reading_Baseline_main_no_click,None,kam,,,,,OA02,001,no,1500,2000,259,338,424,2024-08-26_08h51.13.528,EXNAT_3_fMRI_Psychopy2023.1.3,2023.1.3,74.99175758355952,
0,0,0,0,,,,,,,,,,,#F989A2,1166.1689710617065,400.15409898757935,None,None,None,1320.5405827650404,text_03,272,1,1,1,Reading_Baseline_main_no_click,None,mit,,,,,OA02,001,no,1500,2000,259,338,424,2024-08-26_08h51.13.528,EXNAT_3_fMRI_Psychopy2023.1.3,2023.1.3,74.99175758355952,
0,0,0,0,,,,,,,,,,,#D292F3,1167.5017619132996,401.48688983917236,None,None,None,1320.5405827650404,text_03,273,1,1,1,Reading_Baseline_main_no_click,None,der,,,,,OA02,001,no,1500,2000,259,338,424,2024-08-26_08h51.13.528,EXNAT_3_fMRI_Psychopy2023.1.3,2023.1.3,74.99175758355952,
0,0,0,0,,,,,,,,,,,#F989A2,1168.8350241184235,402.82015204429626,None,None,None,1500.0,text_03,274,1,1,1,Reading_Baseline_main_no_click,None,Post."",,,,,OA02,001,no,1500,2000,259,338,424,2024-08-26_08h51.13.528,EXNAT_3_fMRI_Psychopy2023.1.3,2023.1.3,74.99175758355952,
0,0,0,0,,,,,,,,,,,#D292F3,1170.3409180641174,404.32604598999023,None,None,None,1500.0,text_03,275,1,1,1,Reading_Baseline_main_no_click,None,Einstein,,,,,OA02,001,no,1500,2000,259,338,424,2024-08-26_08h51.13.528,EXNAT_3_fMRI_Psychopy2023.1.3,2023.1.3,74.99175758355952,
0,0,0,0,,,,,,,,,,,#F989A2,1171.8471229076385,405.83225083351135,None,None,None,1500.0,text_03,276,1,1,1,Reading_Baseline_main_no_click,None,schritt,,,,,OA02,001,no,1500,2000,259,338,424,2024-08-26_08h51.13.528,EXNAT_3_fMRI_Psychopy2023.1.3,2023.1.3,74.99175758355952,
0,0,0,0,,,,,,,,,,,#D292F3,1173.3531699180603,407.3382978439331,None,None,None,1500.0,text_03,277,1,1,1,Reading_Baseline_main_no_click,None,sofort,,,,,OA02,001,no,1500,2000,259,338,424,2024-08-26_08h51.13.528,EXNAT_3_fMRI_Psychopy2023.1.3,2023.1.3,74.99175758355952,
0,0,0,0,,,,,,,,,,,#F989A2,1174.859230041504,408.8443579673767,None,None,None,1320.5405827650404,text_03,278,1,1,1,Reading_Baseline_main_no_click,None,zur,,,,,OA02,001,no,1500,2000,259,338,424,2024-08-26_08h51.13.528,EXNAT_3_fMRI_Psychopy2023.1.3,2023.1.3,74.99175758355952,
0,0,0,0,,,,,,,,,,,#2AB7EF,1176.1924850940704,410.17761301994324,None,None,None,1395.0502395300516,text_03,279,1,1,1,Reading_Baseline_main_no_click,None,Tat.,,,,,OA02,001,no,1500,2000,259,338,424,2024-08-26_08h51.13.528,EXNAT_3_fMRI_Psychopy2023.1.3,2023.1.3,74.99175758355952,
0,0,0,0,,,,,,,,,,,#88BA3F,1177.591658115387,411.57678604125977,None,None,None,1320.5405827650404,text_03,280,1,1,1,Reading_Baseline_main_no_click,None,Der,,,,,OA02,001,no,1500,2000,259,338,424,2024-08-26_08h51.13.528,EXNAT_3_fMRI_Psychopy2023.1.3,2023.1.3,74.99175758355952,
0,0,0,0,,,,,,,,,,,#F989A2,1178.9251430034637,412.91027092933655,None,None,None,1500.0,text_03,281,1,1,1,Reading_Baseline_main_no_click,None,Erfolg,,,,,OA02,001,no,1500,2000,259,338,424,2024-08-26_08h51.13.528,EXNAT_3_fMRI_Psychopy2023.1.3,2023.1.3,74.99175758355952,
0,0,0,0,,,,,,,,,,,#88BA3F,1180.430701971054,414.4158298969269,None,None,None,1452.844419320432,text_03,282,1,1,1,Reading_Baseline_main_no_click,None,blieb,,,,,OA02,001,no,1500,2000,259,338,424,2024-08-26_08h51.13.528,EXNAT_3_fMRI_Psychopy2023.1.3,2023.1.3,74.99175758355952,
0,0,0,0,,,,,,,,,,,#D292F3,1181.8970329761505,415.8821609020233,None,None,None,1500.0,text_03,283,1,1,1,Reading_Baseline_main_no_click,None,jedoch,,,,,OA02,001,no,1500,2000,259,338,424,2024-08-26_08h51.13.528,EXNAT_3_fMRI_Psychopy2023.1.3,2023.1.3,74.99175758355952,
0,0,0,0,,,,,,,,,,,#88BA3F,1183.4029700756073,417.3880980014801,None,None,None,1500.0,text_03,284,1,1,1,Reading_Baseline_main_no_click,None,leider,,,,,OA02,001,no,1500,2000,259,338,424,2024-08-26_08h51.13.528,EXNAT_3_fMRI_Psychopy2023.1.3,2023.1.3,74.99175758355952,
0,0,0,0,,,,,,,,,,,#2AB7EF,1184.9103600978851,418.89548802375793,None,None,None,1395.0502395300516,text_03,285,1,1,1,Reading_Baseline_main_no_click,None,aus:,,,,,OA02,001,no,1500,2000,259,338,424,2024-08-26_08h51.13.528,EXNAT_3_fMRI_Psychopy2023.1.3,2023.1.3,74.99175758355952,
0,0,0,0,,,,,,,,,,,#2AB7EF,1186.3086910247803,420.2938189506531,None,None,None,1395.0502395300516,text_03,286,1,1,1,Reading_Baseline_main_no_click,None,""Der,,,,,OA02,001,no,1500,2000,259,338,424,2024-08-26_08h51.13.528,EXNAT_3_fMRI_Psychopy2023.1.3,2023.1.3,74.99175758355952,
0,0,0,0,,,,,,,,,,,#F989A2,1187.7086489200592,421.693776845932,None,None,None,1500.0,text_03,287,1,1,1,Reading_Baseline_main_no_click,None,Papagei,,,,,OA02,001,no,1500,2000,259,338,424,2024-08-26_08h51.13.528,EXNAT_3_fMRI_Psychopy2023.1.3,2023.1.3,74.99175758355952,
0,0,0,0,,,,,,,,,,,#D292F3,1189.2141299247742,423.199257850647,None,None,None,1320.5405827650404,text_03,288,1,1,1,Reading_Baseline_main_no_click,None,ist,,,,,OA02,001,no,1500,2000,259,338,424,2024-08-26_08h51.13.528,EXNAT_3_fMRI_Psychopy2023.1.3,2023.1.3,74.99175758355952,
0,0,0,0,,,,,,,,,,,#D292F3,1190.5472629070282,424.532390832901,None,None,None,1500.0,text_03,289,1,1,1,Reading_Baseline_main_no_click,None,traurig.,,,,,OA02,001,no,1500,2000,259,338,424,2024-08-26_08h51.13.528,EXNAT_3_fMRI_Psychopy2023.1.3,2023.1.3,74.99175758355952,
0,0,0,0,,,,,,,,,,,#F989A2,1192.0534019470215,426.0385298728943,None,None,None,1320.5405827650404,text_03,290,1,1,1,Reading_Baseline_main_no_click,None,Ich,,,,,OA02,001,no,1500,2000,259,338,424,2024-08-26_08h51.13.528,EXNAT_3_fMRI_Psychopy2023.1.3,2023.1.3,74.99175758355952,
0,0,0,0,,,,,,,,,,,#88BA3F,1193.3862130641937,427.3713409900665,None,None,None,1500.0,text_03,291,1,1,1,Reading_Baseline_main_no_click,None,versuche,,,,,OA02,001,no,1500,2000,259,338,424,2024-08-26_08h51.13.528,EXNAT_3_fMRI_Psychopy2023.1.3,2023.1.3,74.99175758355952,
0,0,0,0,,,,,,,,,,,#F989A2,1194.8923709392548,428.87749886512756,None,None,None,1320.5405827650404,text_03,292,1,1,1,Reading_Baseline_main_no_click,None,ihn,,,,,OA02,001,no,1500,2000,259,338,424,2024-08-26_08h51.13.528,EXNAT_3_fMRI_Psychopy2023.1.3,2023.1.3,74.99175758355952,
0,0,0,0,,,,,,,,,,,#2AB7EF,1196.2253201007843,430.2104480266571,None,None,None,1500.0,text_03,293,1,1,1,Reading_Baseline_main_no_click,None,"aufzuheitern,",,,,,OA02,001,no,1500,2000,259,338,424,2024-08-26_08h51.13.528,EXNAT_3_fMRI_Psychopy2023.1.3,2023.1.3,74.99175758355952,
0,0,0,0,,,,,,,,,,,#F989A2,1197.7312109470367,431.71633887290955,None,None,None,1395.0502395300516,text_03,294,1,1,1,Reading_Baseline_main_no_click,None,aber,,,,,OA02,001,no,1500,2000,259,338,424,2024-08-26_08h51.13.528,EXNAT_3_fMRI_Psychopy2023.1.3,2023.1.3,74.99175758355952,
0,0,0,0,,,,,,,,,,,#88BA3F,1199.1306519508362,433.115779876709,None,None,None,1295.0,text_03,295,1,1,1,Reading_Baseline_main_no_click,None,er,,,,,OA02,001,no,1500,2000,259,338,424,2024-08-26_08h51.13.528,EXNAT_3_fMRI_Psychopy2023.1.3,2023.1.3,74.99175758355952,
0,0,0,0,,,,,,,,,,,#2AB7EF,1200.4376299381256,434.4227578639984,None,None,None,1500.0,text_03,296,1,1,1,Reading_Baseline_main_no_click,None,versteht,,,,,OA02,001,no,1500,2000,259,338,424,2024-08-26_08h51.13.528,EXNAT_3_fMRI_Psychopy2023.1.3,2023.1.3,74.99175758355952,
0,0,0,0,,,,,,,,,,,#D292F3,1201.9433588981628,435.92848682403564,None,None,None,1500.0,text_03,297,1,1,1,Reading_Baseline_main_no_click,None,leider,,,,,OA02,001,no,1500,2000,259,338,424,2024-08-26_08h51.13.528,EXNAT_3_fMRI_Psychopy2023.1.3,2023.1.3,74.99175758355952,
0,0,0,0,,,,,,,,,,,#D292F3,1203.4494791030884,437.4346070289612,None,None,None,1452.844419320432,text_03,298,1,1,1,Reading_Baseline_main_no_click,None,meine,,,,,OA02,001,no,1500,2000,259,338,424,2024-08-26_08h51.13.528,EXNAT_3_fMRI_Psychopy2023.1.3,2023.1.3,74.99175758355952,
0,0,0,0,,,,,,,,,,,#2AB7EF,1204.9161069393158,438.9012348651886,None,None,None,1452.844419320432,text_03,299,1,1,1,Reading_Baseline_main_no_click,None,Witze,,,,,OA02,001,no,1500,2000,259,338,424,2024-08-26_08h51.13.528,EXNAT_3_fMRI_Psychopy2023.1.3,2023.1.3,74.99175758355952,
0,0,0,0,,,,,,,,,,,#F989A2,1206.381854057312,440.3669819831848,None,None,None,1500.0,text_03,300,1,1,1,Reading_Baseline_main_no_click,None,nicht."",,,,,OA02,001,no,1500,2000,259,338,424,2024-08-26_08h51.13.528,EXNAT_3_fMRI_Psychopy2023.1.3,2023.1.3,74.99175758355952,
0,0,0,0,,,,,,,,,,,,1207.932198047638,441.91732597351074,,,,,text_03,,1,1,1,Reading_Baseline_main_no_click,None,,Q1,4,d,True,OA02,001,no,1500,2000,259,338,424,2024-08-26_08h51.13.528,EXNAT_3_fMRI_Psychopy2023.1.3,2023.1.3,74.99175758355952,
0,0,0,0,,,,,,,,,,,,1217.2700510025024,451.25517892837524,,,,,text_03,,1,1,1,Reading_Baseline_main_no_click,None,,Q2,1,a,True,OA02,001,no,1500,2000,259,338,424,2024-08-26_08h51.13.528,EXNAT_3_fMRI_Psychopy2023.1.3,2023.1.3,74.99175758355952,
0,0,0,0,,,,,,,,,,,,1221.2119979858398,455.19712591171265,,,,,text_03,,1,1,1,Reading_Baseline_main_no_click,None,,Q3,1,a,True,OA02,001,no,1500,2000,259,338,424,2024-08-26_08h51.13.528,EXNAT_3_fMRI_Psychopy2023.1.3,2023.1.3,74.99175758355952,
0,0,0,0,,,,,,,,,,,,,,,,,,,,,,,,,,,,,,OA02,001,no,1500,2000,259,338,424,2024-08-26_08h51.13.528,EXNAT_3_fMRI_Psychopy2023.1.3,2023.1.3,74.99175758355952,
1,0,1,0,,,,,,,,,,,#88BA3F,1233.6551280021667,467.64025592803955,None,None,None,1320.5405827650404,pseudo_text_06,1,2,1,2,Reading_pseudotext_no_click,None,Der,,,,,OA02,001,no,1500,2000,259,338,424,2024-08-26_08h51.13.528,EXNAT_3_fMRI_Psychopy2023.1.3,2023.1.3,74.99175758355952,
1,0,1,0,,,,,,,,,,,#F989A2,1234.9865229129791,468.97165083885193,None,None,None,1500.0,pseudo_text_06,2,2,1,2,Reading_pseudotext_no_click,None,"Schwastwaff,",,,,,OA02,001,no,1500,2000,259,338,424,2024-08-26_08h51.13.528,EXNAT_3_fMRI_Psychopy2023.1.3,2023.1.3,74.99175758355952,
1,0,1,0,,,,,,,,,,,#D292F3,1236.4912300109863,470.47635793685913,None,None,None,1320.5405827650404,pseudo_text_06,3,2,1,2,Reading_pseudotext_no_click,None,mit,,,,,OA02,001,no,1500,2000,259,338,424,2024-08-26_08h51.13.528,EXNAT_3_fMRI_Psychopy2023.1.3,2023.1.3,74.99175758355952,
1,0,1,0,,,,,,,,,,,#2AB7EF,1237.8239240646362,471.80905199050903,None,None,None,1500.0,pseudo_text_06,4,2,1,2,Reading_pseudotext_no_click,None,seiser,,,,,OA02,001,no,1500,2000,259,338,424,2024-08-26_08h51.13.528,EXNAT_3_fMRI_Psychopy2023.1.3,2023.1.3,74.99175758355952,
1,0,1,0,,,,,,,,,,,#2AB7EF,1239.3308460712433,473.3159739971161,None,None,None,1500.0,pseudo_text_06,5,2,1,2,Reading_pseudotext_no_click,None,einküsartiden,,,,,OA02,001,no,1500,2000,259,338,424,2024-08-26_08h51.13.528,EXNAT_3_fMRI_Psychopy2023.1.3,2023.1.3,74.99175758355952,
1,0,1,0,,,,,,,,,,,#2AB7EF,1240.8370640277863,474.82219195365906,None,None,None,1452.844419320432,pseudo_text_06,6,2,1,2,Reading_pseudotext_no_click,None,Froda,,,,,OA02,001,no,1500,2000,259,338,424,2024-08-26_08h51.13.528,EXNAT_3_fMRI_Psychopy2023.1.3,2023.1.3,74.99175758355952,
1,0,1,0,,,,,,,,,,,#D292F3,1242.302598953247,476.2877268791199,None,None,None,1320.5405827650404,pseudo_text_06,7,2,1,2,Reading_pseudotext_no_click,None,und,,,,,OA02,001,no,1500,2000,259,338,424,2024-08-26_08h51.13.528,EXNAT_3_fMRI_Psychopy2023.1.3,2023.1.3,74.99175758355952,
1,0,1,0,,,,,,,,,,,#88BA3F,1243.6356670856476,477.6207950115204,None,None,None,1500.0,pseudo_text_06,8,2,1,2,Reading_pseudotext_no_click,None,"Gauka,",,,,,OA02,001,no,1500,2000,259,338,424,2024-08-26_08h51.13.528,EXNAT_3_fMRI_Psychopy2023.1.3,2023.1.3,74.99175758355952,
1,0,1,0,,,,,,,,,,,#D292F3,1245.1411681175232,479.126296043396,None,None,None,1320.5405827650404,pseudo_text_06,9,2,1,2,Reading_pseudotext_no_click,None,ühn,,,,,OA02,001,no,1500,2000,259,338,424,2024-08-26_08h51.13.528,EXNAT_3_fMRI_Psychopy2023.1.3,2023.1.3,74.99175758355952,
1,0,1,0,,,,,,,,,,,#F989A2,1246.474671125412,480.4597990512848,None,None,None,1452.844419320432,pseudo_text_06,10,2,1,2,Reading_pseudotext_no_click,None,jeses,,,,,OA02,001,no,1500,2000,259,338,424,2024-08-26_08h51.13.528,EXNAT_3_fMRI_Psychopy2023.1.3,2023.1.3,74.99175758355952,
1,0,1,0,,,,,,,,,,,#2AB7EF,1247.9407241344452,481.925852060318,None,None,None,1395.0502395300516,pseudo_text_06,11,2,1,2,Reading_pseudotext_no_click,None,Japf,,,,,OA02,001,no,1500,2000,259,338,424,2024-08-26_08h51.13.528,EXNAT_3_fMRI_Psychopy2023.1.3,2023.1.3,74.99175758355952,
1,0,1,0,,,,,,,,,,,#F989A2,1249.339693069458,483.3248209953308,None,None,None,1395.0502395300516,pseudo_text_06,12,2,1,2,Reading_pseudotext_no_click,None,eine,,,,,OA02,001,no,1500,2000,259,338,424,2024-08-26_08h51.13.528,EXNAT_3_fMRI_Psychopy2023.1.3,2023.1.3,74.99175758355952,
1,0,1,0,,,,,,,,,,,#88BA3F,1250.739354133606,484.72448205947876,None,None,None,1500.0,pseudo_text_06,13,2,1,2,Reading_pseudotext_no_click,None,stenke,,,,,OA02,001,no,1500,2000,259,338,424,2024-08-26_08h51.13.528,EXNAT_3_fMRI_Psychopy2023.1.3,2023.1.3,74.99175758355952,
1,0,1,0,,,,,,,,,,,#D292F3,1252.24609208107,486.23122000694275,None,None,None,1500.0,pseudo_text_06,14,2,1,2,Reading_pseudotext_no_click,None,Anziesuchtflent,,,,,OA02,001,no,1500,2000,259,338,424,2024-08-26_08h51.13.528,EXNAT_3_fMRI_Psychopy2023.1.3,2023.1.3,74.99175758355952,
1,0,1,0,,,,,,,,,,,#F989A2,1253.7517530918121,487.73688101768494,None,None,None,1320.5405827650404,pseudo_text_06,15,2,1,2,Reading_pseudotext_no_click,None,auf,,,,,OA02,001,no,1500,2000,259,338,424,2024-08-26_08h51.13.528,EXNAT_3_fMRI_Psychopy2023.1.3,2023.1.3,74.99175758355952,
1,0,1,0,,,,,,,,,,,#2AB7EF,1255.084545135498,489.06967306137085,None,None,None,1500.0,pseudo_text_06,16,2,1,2,Reading_pseudotext_no_click,None,zackheiche,,,,,OA02,001,no,1500,2000,259,338,424,2024-08-26_08h51.13.528,EXNAT_3_fMRI_Psychopy2023.1.3,2023.1.3,74.99175758355952,
1,0,1,0,,,,,,,,,,,#88BA3F,1256.5918021202087,490.57693004608154,None,None,None,1500.0,pseudo_text_06,17,2,1,2,Reading_pseudotext_no_click,None,Zagurkeishaber,,,,,OA02,001,no,1500,2000,259,338,424,2024-08-26_08h51.13.528,EXNAT_3_fMRI_Psychopy2023.1.3,2023.1.3,74.99175758355952,
1,0,1,0,,,,,,,,,,,#88BA3F,1258.0967531204224,492.08188104629517,None,None,None,1395.0502395300516,pseudo_text_06,18,2,1,2,Reading_pseudotext_no_click,None,"res,",,,,,OA02,001,no,1500,2000,259,338,424,2024-08-26_08h51.13.528,EXNAT_3_fMRI_Psychopy2023.1.3,2023.1.3,74.99175758355952,
1,0,1,0,,,,,,,,,,,#F989A2,1259.4960601329803,493.48118805885315,None,None,None,1320.5405827650404,pseudo_text_06,19,2,1,2,Reading_pseudotext_no_click,None,die,,,,,OA02,001,no,1500,2000,259,338,424,2024-08-26_08h51.13.528,EXNAT_3_fMRI_Psychopy2023.1.3,2023.1.3,74.99175758355952,
1,0,1,0,,,,,,,,,,,#88BA3F,1260.8277759552002,494.812903881073,None,None,None,1320.5405827650404,pseudo_text_06,20,2,1,2,Reading_pseudotext_no_click,None,die,,,,,OA02,001,no,1500,2000,259,338,424,2024-08-26_08h51.13.528,EXNAT_3_fMRI_Psychopy2023.1.3,2023.1.3,74.99175758355952,
1,0,1,0,,,,,,,,,,,#88BA3F,1262.162838935852,496.14796686172485,None,None,None,1500.0,pseudo_text_06,21,2,1,2,Reading_pseudotext_no_click,None,ungetöffte,,,,,OA02,001,no,1500,2000,259,338,424,2024-08-26_08h51.13.528,EXNAT_3_fMRI_Psychopy2023.1.3,2023.1.3,74.99175758355952,
1,0,1,0,,,,,,,,,,,#D292F3,1263.6681110858917,497.6532390117645,None,None,None,1500.0,pseudo_text_06,22,2,1,2,Reading_pseudotext_no_click,None,Schüsheit,,,,,OA02,001,no,1500,2000,259,338,424,2024-08-26_08h51.13.528,EXNAT_3_fMRI_Psychopy2023.1.3,2023.1.3,74.99175758355952,
1,0,1,0,,,,,,,,,,,#2AB7EF,1265.1745910644531,499.1597189903259,None,None,None,1500.0,pseudo_text_06,23,2,1,2,Reading_pseudotext_no_click,None,dieser,,,,,OA02,001,no,1500,2000,259,338,424,2024-08-26_08h51.13.528,EXNAT_3_fMRI_Psychopy2023.1.3,2023.1.3,74.99175758355952,
1,0,1,0,,,,,,,,,,,#F989A2,1266.6812798976898,500.6664078235626,None,None,None,1500.0,pseudo_text_06,24,2,1,2,Reading_pseudotext_no_click,None,sajechötiffsen,,,,,OA02,001,no,1500,2000,259,338,424,2024-08-26_08h51.13.528,EXNAT_3_fMRI_Psychopy2023.1.3,2023.1.3,74.99175758355952,
1,0,1,0,,,,,,,,,,,#2AB7EF,1268.1874840259552,502.172611951828,None,None,None,1500.0,pseudo_text_06,25,2,1,2,Reading_pseudotext_no_click,None,Lediän,,,,,OA02,001,no,1500,2000,259,338,424,2024-08-26_08h51.13.528,EXNAT_3_fMRI_Psychopy2023.1.3,2023.1.3,74.99175758355952,
1,0,1,0,,,,,,,,,,,#88BA3F,1269.6933829784393,503.67851090431213,None,None,None,1500.0,pseudo_text_06,26,2,1,2,Reading_pseudotext_no_click,None,ermißen,,,,,OA02,001,no,1500,2000,259,338,424,2024-08-26_08h51.13.528,EXNAT_3_fMRI_Psychopy2023.1.3,2023.1.3,74.99175758355952,
1,0,1,0,,,,,,,,,,,#D292F3,1271.199364900589,505.1844928264618,None,None,None,1500.0,pseudo_text_06,27,2,1,2,Reading_pseudotext_no_click,None,rächten.,,,,,OA02,001,no,1500,2000,259,338,424,2024-08-26_08h51.13.528,EXNAT_3_fMRI_Psychopy2023.1.3,2023.1.3,74.99175758355952,
1,0,1,0,,,,,,,,,,,#2AB7EF,1272.705013036728,506.6901409626007,None,None,None,1452.844419320432,pseudo_text_06,28,2,1,2,Reading_pseudotext_no_click,None,Seise,,,,,OA02,001,no,1500,2000,259,338,424,2024-08-26_08h51.13.528,EXNAT_3_fMRI_Psychopy2023.1.3,2023.1.3,74.99175758355952,
1,0,1,0,,,,,,,,,,,#D292F3,1274.171063899994,508.1561918258667,None,None,None,1500.0,pseudo_text_06,29,2,1,2,Reading_pseudotext_no_click,None,pechten,,,,,OA02,001,no,1500,2000,259,338,424,2024-08-26_08h51.13.528,EXNAT_3_fMRI_Psychopy2023.1.3,2023.1.3,74.99175758355952,
1,0,1,0,,,,,,,,,,,#88BA3F,1275.6779201030731,509.6630480289459,None,None,None,1500.0,pseudo_text_06,30,2,1,2,Reading_pseudotext_no_click,None,"Sölder,",,,,,OA02,001,no,1500,2000,259,338,424,2024-08-26_08h51.13.528,EXNAT_3_fMRI_Psychopy2023.1.3,2023.1.3,74.99175758355952,
1,0,1,0,,,,,,,,,,,#F989A2,1277.1836020946503,511.16873002052307,None,None,None,1500.0,pseudo_text_06,31,2,1,2,Reading_pseudotext_no_click,None,spaben,,,,,OA02,001,no,1500,2000,259,338,424,2024-08-26_08h51.13.528,EXNAT_3_fMRI_Psychopy2023.1.3,2023.1.3,74.99175758355952,
1,0,1,0,,,,,,,,,,,#88BA3F,1278.6897940635681,512.6749219894409,None,None,None,1452.844419320432,pseudo_text_06,32,2,1,2,Reading_pseudotext_no_click,None,Niche,,,,,OA02,001,no,1500,2000,259,338,424,2024-08-26_08h51.13.528,EXNAT_3_fMRI_Psychopy2023.1.3,2023.1.3,74.99175758355952,
1,0,1,0,,,,,,,,,,,#F989A2,1280.1554539203644,514.1405818462372,None,None,None,1320.5405827650404,pseudo_text_06,33,2,1,2,Reading_pseudotext_no_click,None,und,,,,,OA02,001,no,1500,2000,259,338,424,2024-08-26_08h51.13.528,EXNAT_3_fMRI_Psychopy2023.1.3,2023.1.3,74.99175758355952,
1,0,1,0,,,,,,,,,,,#D292F3,1281.4885919094086,515.4737198352814,None,None,None,1500.0,pseudo_text_06,34,2,1,2,Reading_pseudotext_no_click,None,wozereschen,,,,,OA02,001,no,1500,2000,259,338,424,2024-08-26_08h51.13.528,EXNAT_3_fMRI_Psychopy2023.1.3,2023.1.3,74.99175758355952,
1,0,1,0,,,,,,,,,,,#F989A2,1282.9951870441437,516.9803149700165,None,None,None,1500.0,pseudo_text_06,35,2,1,2,Reading_pseudotext_no_click,None,Belfknade,,,,,OA02,001,no,1500,2000,259,338,424,2024-08-26_08h51.13.528,EXNAT_3_fMRI_Psychopy2023.1.3,2023.1.3,74.99175758355952,
1,0,1,0,,,,,,,,,,,#2AB7EF,1284.5010030269623,518.4861309528351,None,None,None,1500.0,pseudo_text_06,36,2,1,2,Reading_pseudotext_no_click,None,gimden,,,,,OA02,001,no,1500,2000,259,338,424,2024-08-26_08h51.13.528,EXNAT_3_fMRI_Psychopy2023.1.3,2023.1.3,74.99175758355952,
1,0,1,0,,,,,,,,,,,#2AB7EF,1286.0069749355316,519.9921028614044,None,None,None,1320.5405827650404,pseudo_text_06,37,2,1,2,Reading_pseudotext_no_click,None,ein,,,,,OA02,001,no,1500,2000,259,338,424,2024-08-26_08h51.13.528,EXNAT_3_fMRI_Psychopy2023.1.3,2023.1.3,74.99175758355952,
1,0,1,0,,,,,,,,,,,#88BA3F,1287.3405339717865,521.3256618976593,None,None,None,1500.0,pseudo_text_06,38,2,1,2,Reading_pseudotext_no_click,None,viefbaktiges,,,,,OA02,001,no,1500,2000,259,338,424,2024-08-26_08h51.13.528,EXNAT_3_fMRI_Psychopy2023.1.3,2023.1.3,74.99175758355952,
1,0,1,0,,,,,,,,,,,#2AB7EF,1288.8468399047852,522.831967830658,None,None,None,1500.0,pseudo_text_06,39,2,1,2,Reading_pseudotext_no_click,None,"Ärobystel,",,,,,OA02,001,no,1500,2000,259,338,424,2024-08-26_08h51.13.528,EXNAT_3_fMRI_Psychopy2023.1.3,2023.1.3,74.99175758355952,
1,0,1,0,,,,,,,,,,,#2AB7EF,1290.35187292099,524.3370008468628,None,None,None,1320.5405827650404,pseudo_text_06,40,2,1,2,Reading_pseudotext_no_click,None,das,,,,,OA02,001,no,1500,2000,259,338,424,2024-08-26_08h51.13.528,EXNAT_3_fMRI_Psychopy2023.1.3,2023.1.3,74.99175758355952,
1,0,1,0,,,,,,,,,,,#D292F3,1291.6847789287567,525.6699068546295,None,None,None,1395.0502395300516,pseudo_text_06,41,2,1,2,Reading_pseudotext_no_click,None,eine,,,,,OA02,001,no,1500,2000,259,338,424,2024-08-26_08h51.13.528,EXNAT_3_fMRI_Psychopy2023.1.3,2023.1.3,74.99175758355952,
1,0,1,0,,,,,,,,,,,#D292F3,1293.0844399929047,527.0695679187775,None,None,None,1452.844419320432,pseudo_text_06,42,2,1,2,Reading_pseudotext_no_click,None,spowe,,,,,OA02,001,no,1500,2000,259,338,424,2024-08-26_08h51.13.528,EXNAT_3_fMRI_Psychopy2023.1.3,2023.1.3,74.99175758355952,
1,0,1,0,,,,,,,,,,,#D292F3,1294.550609111786,528.5357370376587,None,None,None,1395.0502395300516,pseudo_text_06,43,2,1,2,Reading_pseudotext_no_click,None,Zakt,,,,,OA02,001,no,1500,2000,259,338,424,2024-08-26_08h51.13.528,EXNAT_3_fMRI_Psychopy2023.1.3,2023.1.3,74.99175758355952,
1,0,1,0,,,,,,,,,,,#F989A2,1295.9507400989532,529.935868024826,None,None,None,1320.5405827650404,pseudo_text_06,44,2,1,2,Reading_pseudotext_no_click,None,von,,,,,OA02,001,no,1500,2000,259,338,424,2024-08-26_08h51.13.528,EXNAT_3_fMRI_Psychopy2023.1.3,2023.1.3,74.99175758355952,
1,0,1,0,,,,,,,,,,,#D292F3,1297.283658027649,531.2687859535217,None,None,None,1452.844419320432,pseudo_text_06,45,2,1,2,Reading_pseudotext_no_click,None,Mier-,,,,,OA02,001,no,1500,2000,259,338,424,2024-08-26_08h51.13.528,EXNAT_3_fMRI_Psychopy2023.1.3,2023.1.3,74.99175758355952,
1,0,1,0,,,,,,,,,,,#D292F3,1298.749011039734,532.7341389656067,None,None,None,1320.5405827650404,pseudo_text_06,46,2,1,2,Reading_pseudotext_no_click,None,und,,,,,OA02,001,no,1500,2000,259,338,424,2024-08-26_08h51.13.528,EXNAT_3_fMRI_Psychopy2023.1.3,2023.1.3,74.99175758355952,
1,0,1,0,,,,,,,,,,,#2AB7EF,1300.0824530124664,534.0675809383392,None,None,None,1500.0,pseudo_text_06,47,2,1,2,Reading_pseudotext_no_click,None,Sprannenulten,,,,,OA02,001,no,1500,2000,259,338,424,2024-08-26_08h51.13.528,EXNAT_3_fMRI_Psychopy2023.1.3,2023.1.3,74.99175758355952,
1,0,1,0,,,,,,,,,,,#F989A2,1301.5888259410858,535.5739538669586,None,None,None,1500.0,pseudo_text_06,48,2,1,2,Reading_pseudotext_no_click,None,benermerzt.,,,,,OA02,001,no,1500,2000,259,338,424,2024-08-26_08h51.13.528,EXNAT_3_fMRI_Psychopy2023.1.3,2023.1.3,74.99175758355952,
1,0,1,0,,,,,,,,,,,#F989A2,1303.0940239429474,537.0791518688202,None,None,None,1320.5405827650404,pseudo_text_06,49,2,1,2,Reading_pseudotext_no_click,None,Die,,,,,OA02,001,no,1500,2000,259,338,424,2024-08-26_08h51.13.528,EXNAT_3_fMRI_Psychopy2023.1.3,2023.1.3,74.99175758355952,
1,0,1,0,,,,,,,,,,,#88BA3F,1304.4272871017456,538.4124150276184,None,None,None,1500.0,pseudo_text_06,50,2,1,2,Reading_pseudotext_no_click,None,Lediän,,,,,OA02,001,no,1500,2000,259,338,424,2024-08-26_08h51.13.528,EXNAT_3_fMRI_Psychopy2023.1.3,2023.1.3,74.99175758355952,
1,0,1,0,,,,,,,,,,,#F989A2,1305.9330229759216,539.9181509017944,None,None,None,1320.5405827650404,pseudo_text_06,51,2,1,2,Reading_pseudotext_no_click,None,ost,,,,,OA02,001,no,1500,2000,259,338,424,2024-08-26_08h51.13.528,EXNAT_3_fMRI_Psychopy2023.1.3,2023.1.3,74.99175758355952,
1,0,1,0,,,,,,,,,,,#F989A2,1307.2664561271667,541.2515840530396,None,None,None,1452.844419320432,pseudo_text_06,52,2,1,2,Reading_pseudotext_no_click,None,gicht,,,,,OA02,001,no,1500,2000,259,338,424,2024-08-26_08h51.13.528,EXNAT_3_fMRI_Psychopy2023.1.3,2023.1.3,74.99175758355952,
1,0,1,0,,,,,,,,,,,#2AB7EF,1308.7321541309357,542.7172820568085,None,None,None,1320.5405827650404,pseudo_text_06,53,2,1,2,Reading_pseudotext_no_click,None,hor,,,,,OA02,001,no,1500,2000,259,338,424,2024-08-26_08h51.13.528,EXNAT_3_fMRI_Psychopy2023.1.3,2023.1.3,74.99175758355952,
1,0,1,0,,,,,,,,,,,#D292F3,1310.0651240348816,544.0502519607544,None,None,None,1320.5405827650404,pseudo_text_06,54,2,1,2,Reading_pseudotext_no_click,None,bei,,,,,OA02,001,no,1500,2000,259,338,424,2024-08-26_08h51.13.528,EXNAT_3_fMRI_Psychopy2023.1.3,2023.1.3,74.99175758355952,
1,0,1,0,,,,,,,,,,,#F989A2,1311.3979849815369,545.3831129074097,None,None,None,1500.0,pseudo_text_06,55,2,1,2,Reading_pseudotext_no_click,None,Fliwehrern,,,,,OA02,001,no,1500,2000,259,338,424,2024-08-26_08h51.13.528,EXNAT_3_fMRI_Psychopy2023.1.3,2023.1.3,74.99175758355952,
1,0,1,0,,,,,,,,,,,#F989A2,1312.9039249420166,546.8890528678894,None,None,None,1320.5405827650404,pseudo_text_06,56,2,1,2,Reading_pseudotext_no_click,None,und,,,,,OA02,001,no,1500,2000,259,338,424,2024-08-26_08h51.13.528,EXNAT_3_fMRI_Psychopy2023.1.3,2023.1.3,74.99175758355952,
1,0,1,0,,,,,,,,,,,#2AB7EF,1314.2370519638062,548.222179889679,None,None,None,1500.0,pseudo_text_06,57,2,1,2,Reading_pseudotext_no_click,None,Sadspicklern,,,,,OA02,001,no,1500,2000,259,338,424,2024-08-26_08h51.13.528,EXNAT_3_fMRI_Psychopy2023.1.3,2023.1.3,74.99175758355952,
1,0,1,0,,,,,,,,,,,#D292F3,1315.7432930469513,549.7284209728241,None,None,None,1500.0,pseudo_text_06,58,2,1,2,Reading_pseudotext_no_click,None,"beninnt,",,,,,OA02,001,no,1500,2000,259,338,424,2024-08-26_08h51.13.528,EXNAT_3_fMRI_Psychopy2023.1.3,2023.1.3,74.99175758355952,
1,0,1,0,,,,,,,,,,,#D292F3,1317.2492220401764,551.2343499660492,None,None,None,1500.0,pseudo_text_06,59,2,1,2,Reading_pseudotext_no_click,None,zündern,,,,,OA02,001,no,1500,2000,259,338,424,2024-08-26_08h51.13.528,EXNAT_3_fMRI_Psychopy2023.1.3,2023.1.3,74.99175758355952,
1,0,1,0,,,,,,,,,,,#88BA3F,1318.7554631233215,552.7405910491943,None,None,None,1395.0502395300516,pseudo_text_06,60,2,1,2,Reading_pseudotext_no_click,None,eich,,,,,OA02,001,no,1500,2000,259,338,424,2024-08-26_08h51.13.528,EXNAT_3_fMRI_Psychopy2023.1.3,2023.1.3,74.99175758355952,
1,0,1,0,,,,,,,,,,,#2AB7EF,1320.1548609733582,554.139988899231,None,None,None,1320.5405827650404,pseudo_text_06,61,2,1,2,Reading_pseudotext_no_click,None,bei,,,,,OA02,001,no,1500,2000,259,338,424,2024-08-26_08h51.13.528,EXNAT_3_fMRI_Psychopy2023.1.3,2023.1.3,74.99175758355952,
