loop_run1_single_reading.thisRepN,loop_run1_single_reading.thisTrialN,loop_run1_single_reading.thisN,loop_run1_single_reading.thisIndex,loop_run2_single_nback.thisRepN,loop_run2_single_nback.thisTrialN,loop_run2_single_nback.thisN,loop_run2_single_nback.thisIndex,loop_dual_task_blocks.thisRepN,loop_dual_task_blocks.thisTrialN,loop_dual_task_blocks.thisN,loop_dual_task_blocks.thisIndex,TriggerCount,TriggerTime,colour,global_onset_time,onset_time_rel2trigger,target,nback_response,nback_RT,duration,text_nr,trial_nr,block_nr_exp,run_nr,block_nr_run,block_name,n-back_level,word,question,button_pressed,chosen_ans,ans_correct,participant,session,testing_mode,RT_per_rectangle_oneback_single,RT_per_rectangle_twoback_single,RT_per_letter_baseline,RT_per_letter_oneback_dual,RT_per_letter_twoback_dual,date,expName,psychopyVersion,frameRate,
0,0,0,0,,,,,,,,,1,279.77206897735596,#88BA3F,290.6256790161133,10.853610038757324,None,None,None,749.1846787809695,text_02,1,1,1,1,Reading_Baseline_main_no_click,None,Zwanzig,,,,,OA03,001,no,1500,2000,126,345,424,2024-08-26_10h59.12.363,EXNAT_3_fMRI_Psychopy2023.1.3,2023.1.3,74.98277523423715,
0,0,0,0,,,,,,,,,,,#D292F3,291.3833210468292,11.611252069473267,None,None,None,706.7891769666967,text_02,2,1,1,1,Reading_Baseline_main_no_click,None,Jahre,,,,,OA03,001,no,1500,2000,126,345,424,2024-08-26_10h59.12.363,EXNAT_3_fMRI_Psychopy2023.1.3,2023.1.3,74.98277523423715,
0,0,0,0,,,,,,,,,,,#88BA3F,292.1027810573578,12.330712080001831,None,None,None,794.1257217172498,text_02,3,1,1,1,Reading_Baseline_main_no_click,None,verbrachte,,,,,OA03,001,no,1500,2000,126,345,424,2024-08-26_10h59.12.363,EXNAT_3_fMRI_Psychopy2023.1.3,2023.1.3,74.98277523423715,
0,0,0,0,,,,,,,,,,,#F989A2,292.90288400650024,13.130815029144287,None,None,None,729.7616931227349,text_02,4,1,1,1,Reading_Baseline_main_no_click,None,Ernest,,,,,OA03,001,no,1500,2000,126,345,424,2024-08-26_10h59.12.363,EXNAT_3_fMRI_Psychopy2023.1.3,2023.1.3,74.98277523423715,
0,0,0,0,,,,,,,,,,,#2AB7EF,293.64843797683716,13.876368999481201,None,None,None,780.8502967443637,text_02,5,1,1,1,Reading_Baseline_main_no_click,None,Hemingway,,,,,OA03,001,no,1500,2000,126,345,424,2024-08-26_10h59.12.363,EXNAT_3_fMRI_Psychopy2023.1.3,2023.1.3,74.98277523423715,
0,0,0,0,,,,,,,,,,,#2AB7EF,294.43476915359497,14.662700176239014,None,None,None,642.4251483721819,text_02,6,1,1,1,Reading_Baseline_main_no_click,None,auf,,,,,OA03,001,no,1500,2000,126,345,424,2024-08-26_10h59.12.363,EXNAT_3_fMRI_Psychopy2023.1.3,2023.1.3,74.98277523423715,
0,0,0,0,,,,,,,,,,,#88BA3F,295.08771800994873,15.315649032592773,None,None,None,706.7891769666967,text_02,7,1,1,1,Reading_Baseline_main_no_click,None,Kuba.,,,,,OA03,001,no,1500,2000,126,345,424,2024-08-26_10h59.12.363,EXNAT_3_fMRI_Psychopy2023.1.3,2023.1.3,74.98277523423715,
0,0,0,0,,,,,,,,,,,#F989A2,295.80706095695496,16.034991979599,None,None,None,642.4251483721819,text_02,8,1,1,1,Reading_Baseline_main_no_click,None,Die,,,,,OA03,001,no,1500,2000,126,345,424,2024-08-26_10h59.12.363,EXNAT_3_fMRI_Psychopy2023.1.3,2023.1.3,74.98277523423715,
0,0,0,0,,,,,,,,,,,#D292F3,296.46022510528564,16.688156127929688,None,None,None,729.7616931227349,text_02,9,1,1,1,Reading_Baseline_main_no_click,None,meiste,,,,,OA03,001,no,1500,2000,126,345,424,2024-08-26_10h59.12.363,EXNAT_3_fMRI_Psychopy2023.1.3,2023.1.3,74.98277523423715,
0,0,0,0,,,,,,,,,,,#88BA3F,297.19289994239807,17.420830965042114,None,None,None,678.6730895011062,text_02,10,1,1,1,Reading_Baseline_main_no_click,None,Zeit,,,,,OA03,001,no,1500,2000,126,345,424,2024-08-26_10h59.12.363,EXNAT_3_fMRI_Psychopy2023.1.3,2023.1.3,74.98277523423715,
0,0,0,0,,,,,,,,,,,#F989A2,297.8868610858917,18.114792108535767,None,None,None,706.7891769666967,text_02,11,1,1,1,Reading_Baseline_main_no_click,None,davon,,,,,OA03,001,no,1500,2000,126,345,424,2024-08-26_10h59.12.363,EXNAT_3_fMRI_Psychopy2023.1.3,2023.1.3,74.98277523423715,
0,0,0,0,,,,,,,,,,,#D292F3,298.60630202293396,18.834233045578003,None,None,None,706.7891769666967,text_02,12,1,1,1,Reading_Baseline_main_no_click,None,lebte,,,,,OA03,001,no,1500,2000,126,345,424,2024-08-26_10h59.12.363,EXNAT_3_fMRI_Psychopy2023.1.3,2023.1.3,74.98277523423715,
0,0,0,0,,,,,,,,,,,#D292F3,299.32543110847473,19.553362131118774,None,None,None,630.0,text_02,13,1,1,1,Reading_Baseline_main_no_click,None,er,,,,,OA03,001,no,1500,2000,126,345,424,2024-08-26_10h59.12.363,EXNAT_3_fMRI_Psychopy2023.1.3,2023.1.3,74.98277523423715,
0,0,0,0,,,,,,,,,,,#88BA3F,299.965322971344,20.193253993988037,None,None,None,630.0,text_02,14,1,1,1,Reading_Baseline_main_no_click,None,in,,,,,OA03,001,no,1500,2000,126,345,424,2024-08-26_10h59.12.363,EXNAT_3_fMRI_Psychopy2023.1.3,2023.1.3,74.98277523423715,
0,0,0,0,,,,,,,,,,,#F989A2,300.60579800605774,20.833729028701782,None,None,None,729.7616931227349,text_02,15,1,1,1,Reading_Baseline_main_no_click,None,"Vigía,",,,,,OA03,001,no,1500,2000,126,345,424,2024-08-26_10h59.12.363,EXNAT_3_fMRI_Psychopy2023.1.3,2023.1.3,74.98277523423715,
0,0,0,0,,,,,,,,,,,#2AB7EF,301.3382740020752,21.56620502471924,None,None,None,729.7616931227349,text_02,16,1,1,1,Reading_Baseline_main_no_click,None,seinem,,,,,OA03,001,no,1500,2000,126,345,424,2024-08-26_10h59.12.363,EXNAT_3_fMRI_Psychopy2023.1.3,2023.1.3,74.98277523423715,
0,0,0,0,,,,,,,,,,,#D292F3,302.07187700271606,22.299808025360107,None,None,None,794.1257217172498,text_02,17,1,1,1,Reading_Baseline_main_no_click,None,legendären,,,,,OA03,001,no,1500,2000,126,345,424,2024-08-26_10h59.12.363,EXNAT_3_fMRI_Psychopy2023.1.3,2023.1.3,74.98277523423715,
0,0,0,0,,,,,,,,,,,#2AB7EF,302.8708801269531,23.098811149597168,None,None,None,678.6730895011062,text_02,18,1,1,1,Reading_Baseline_main_no_click,None,Haus,,,,,OA03,001,no,1500,2000,126,345,424,2024-08-26_10h59.12.363,EXNAT_3_fMRI_Psychopy2023.1.3,2023.1.3,74.98277523423715,
0,0,0,0,,,,,,,,,,,#F989A2,303.56393909454346,23.7918701171875,None,None,None,642.4251483721819,text_02,19,1,1,1,Reading_Baseline_main_no_click,None,vor,,,,,OA03,001,no,1500,2000,126,345,424,2024-08-26_10h59.12.363,EXNAT_3_fMRI_Psychopy2023.1.3,2023.1.3,74.98277523423715,
0,0,0,0,,,,,,,,,,,#88BA3F,304.2170579433441,24.44498896598816,None,None,None,642.4251483721819,text_02,20,1,1,1,Reading_Baseline_main_no_click,None,den,,,,,OA03,001,no,1500,2000,126,345,424,2024-08-26_10h59.12.363,EXNAT_3_fMRI_Psychopy2023.1.3,2023.1.3,74.98277523423715,
0,0,0,0,,,,,,,,,,,#88BA3F,304.87073612213135,25.09866714477539,None,None,None,706.7891769666967,text_02,21,1,1,1,Reading_Baseline_main_no_click,None,Toren,,,,,OA03,001,no,1500,2000,126,345,424,2024-08-26_10h59.12.363,EXNAT_3_fMRI_Psychopy2023.1.3,2023.1.3,74.98277523423715,
0,0,0,0,,,,,,,,,,,#D292F3,305.59012603759766,25.8180570602417,None,None,None,780.8502967443637,text_02,22,1,1,1,Reading_Baseline_main_no_click,None,Havannas.,,,,,OA03,001,no,1500,2000,126,345,424,2024-08-26_10h59.12.363,EXNAT_3_fMRI_Psychopy2023.1.3,2023.1.3,74.98277523423715,
0,0,0,0,,,,,,,,,,,#F989A2,306.3769609928131,26.604892015457153,None,None,None,678.6730895011062,text_02,23,1,1,1,Reading_Baseline_main_no_click,None,Seit,,,,,OA03,001,no,1500,2000,126,345,424,2024-08-26_10h59.12.363,EXNAT_3_fMRI_Psychopy2023.1.3,2023.1.3,74.98277523423715,
0,0,0,0,,,,,,,,,,,#F989A2,307.06960797309875,27.297538995742798,None,None,None,729.7616931227349,text_02,24,1,1,1,Reading_Baseline_main_no_click,None,seinem,,,,,OA03,001,no,1500,2000,126,345,424,2024-08-26_10h59.12.363,EXNAT_3_fMRI_Psychopy2023.1.3,2023.1.3,74.98277523423715,
0,0,0,0,,,,,,,,,,,#88BA3F,307.80250096321106,28.030431985855103,None,None,None,642.4251483721819,text_02,25,1,1,1,Reading_Baseline_main_no_click,None,Tod,,,,,OA03,001,no,1500,2000,126,345,424,2024-08-26_10h59.12.363,EXNAT_3_fMRI_Psychopy2023.1.3,2023.1.3,74.98277523423715,
0,0,0,0,,,,,,,,,,,#F989A2,308.4560890197754,28.684020042419434,None,None,None,729.7616931227349,text_02,26,1,1,1,Reading_Baseline_main_no_click,None,Anfang,,,,,OA03,001,no,1500,2000,126,345,424,2024-08-26_10h59.12.363,EXNAT_3_fMRI_Psychopy2023.1.3,2023.1.3,74.98277523423715,
0,0,0,0,,,,,,,,,,,#2AB7EF,309.18856596946716,29.416496992111206,None,None,None,642.4251483721819,text_02,27,1,1,1,Reading_Baseline_main_no_click,None,der,,,,,OA03,001,no,1500,2000,126,345,424,2024-08-26_10h59.12.363,EXNAT_3_fMRI_Psychopy2023.1.3,2023.1.3,74.98277523423715,
0,0,0,0,,,,,,,,,,,#D292F3,309.84338212013245,30.07131314277649,None,None,None,729.7616931227349,text_02,28,1,1,1,Reading_Baseline_main_no_click,None,1960er,,,,,OA03,001,no,1500,2000,126,345,424,2024-08-26_10h59.12.363,EXNAT_3_fMRI_Psychopy2023.1.3,2023.1.3,74.98277523423715,
0,0,0,0,,,,,,,,,,,#F989A2,310.5882830619812,30.816214084625244,None,None,None,729.7616931227349,text_02,29,1,1,1,Reading_Baseline_main_no_click,None,lagern,,,,,OA03,001,no,1500,2000,126,345,424,2024-08-26_10h59.12.363,EXNAT_3_fMRI_Psychopy2023.1.3,2023.1.3,74.98277523423715,
0,0,0,0,,,,,,,,,,,#88BA3F,311.3211450576782,31.549076080322266,None,None,None,630.0,text_02,30,1,1,1,Reading_Baseline_main_no_click,None,in,,,,,OA03,001,no,1500,2000,126,345,424,2024-08-26_10h59.12.363,EXNAT_3_fMRI_Psychopy2023.1.3,2023.1.3,74.98277523423715,
0,0,0,0,,,,,,,,,,,#2AB7EF,311.9614291191101,32.18936014175415,None,None,None,706.7891769666967,text_02,31,1,1,1,Reading_Baseline_main_no_click,None,Vigía,,,,,OA03,001,no,1500,2000,126,345,424,2024-08-26_10h59.12.363,EXNAT_3_fMRI_Psychopy2023.1.3,2023.1.3,74.98277523423715,
0,0,0,0,,,,,,,,,,,#F989A2,312.6807141304016,32.908645153045654,None,None,None,678.6730895011062,text_02,32,1,1,1,Reading_Baseline_main_no_click,None,etwa,,,,,OA03,001,no,1500,2000,126,345,424,2024-08-26_10h59.12.363,EXNAT_3_fMRI_Psychopy2023.1.3,2023.1.3,74.98277523423715,
0,0,0,0,,,,,,,,,,,#D292F3,313.3743040561676,33.602235078811646,None,None,None,678.6730895011062,text_02,33,1,1,1,Reading_Baseline_main_no_click,None,3000,,,,,OA03,001,no,1500,2000,126,345,424,2024-08-26_10h59.12.363,EXNAT_3_fMRI_Psychopy2023.1.3,2023.1.3,74.98277523423715,
0,0,0,0,,,,,,,,,,,#88BA3F,314.06845903396606,34.29639005661011,None,None,None,806.1348043725948,text_02,34,1,1,1,Reading_Baseline_main_no_click,None,Manuskripte,,,,,OA03,001,no,1500,2000,126,345,424,2024-08-26_10h59.12.363,EXNAT_3_fMRI_Psychopy2023.1.3,2023.1.3,74.98277523423715,
0,0,0,0,,,,,,,,,,,#D292F3,314.8800399303436,35.10797095298767,None,None,None,642.4251483721819,text_02,35,1,1,1,Reading_Baseline_main_no_click,None,des,,,,,OA03,001,no,1500,2000,126,345,424,2024-08-26_10h59.12.363,EXNAT_3_fMRI_Psychopy2023.1.3,2023.1.3,74.98277523423715,
0,0,0,0,,,,,,,,,,,#2AB7EF,315.533282995224,35.76121401786804,None,None,None,749.1846787809695,text_02,36,1,1,1,Reading_Baseline_main_no_click,None,Autors.,,,,,OA03,001,no,1500,2000,126,345,424,2024-08-26_10h59.12.363,EXNAT_3_fMRI_Psychopy2023.1.3,2023.1.3,74.98277523423715,
0,0,0,0,,,,,,,,,,,#88BA3F,316.29342007637024,36.52135109901428,None,None,None,630.0,text_02,37,1,1,1,Reading_Baseline_main_no_click,None,In,,,,,OA03,001,no,1500,2000,126,345,424,2024-08-26_10h59.12.363,EXNAT_3_fMRI_Psychopy2023.1.3,2023.1.3,74.98277523423715,
0,0,0,0,,,,,,,,,,,#D292F3,316.9327960014343,37.16072702407837,None,None,None,642.4251483721819,text_02,38,1,1,1,Reading_Baseline_main_no_click,None,den,,,,,OA03,001,no,1500,2000,126,345,424,2024-08-26_10h59.12.363,EXNAT_3_fMRI_Psychopy2023.1.3,2023.1.3,74.98277523423715,
0,0,0,0,,,,,,,,,,,#F989A2,317.5859191417694,37.81385016441345,None,None,None,806.1348043725948,text_02,39,1,1,1,Reading_Baseline_main_no_click,None,vergangenen,,,,,OA03,001,no,1500,2000,126,345,424,2024-08-26_10h59.12.363,EXNAT_3_fMRI_Psychopy2023.1.3,2023.1.3,74.98277523423715,
0,0,0,0,,,,,,,,,,,#2AB7EF,318.39888095855713,38.62681198120117,None,None,None,729.7616931227349,text_02,40,1,1,1,Reading_Baseline_main_no_click,None,Jahren,,,,,OA03,001,no,1500,2000,126,345,424,2024-08-26_10h59.12.363,EXNAT_3_fMRI_Psychopy2023.1.3,2023.1.3,74.98277523423715,
0,0,0,0,,,,,,,,,,,#F989A2,319.13168001174927,39.35961103439331,None,None,None,678.6730895011062,text_02,41,1,1,1,Reading_Baseline_main_no_click,None,sind,,,,,OA03,001,no,1500,2000,126,345,424,2024-08-26_10h59.12.363,EXNAT_3_fMRI_Psychopy2023.1.3,2023.1.3,74.98277523423715,
0,0,0,0,,,,,,,,,,,#D292F3,319.82491397857666,40.0528450012207,None,None,None,642.4251483721819,text_02,42,1,1,1,Reading_Baseline_main_no_click,None,sie,,,,,OA03,001,no,1500,2000,126,345,424,2024-08-26_10h59.12.363,EXNAT_3_fMRI_Psychopy2023.1.3,2023.1.3,74.98277523423715,
0,0,0,0,,,,,,,,,,,#2AB7EF,320.4779109954834,40.70584201812744,None,None,None,678.6730895011062,text_02,43,1,1,1,Reading_Baseline_main_no_click,None,nach,,,,,OA03,001,no,1500,2000,126,345,424,2024-08-26_10h59.12.363,EXNAT_3_fMRI_Psychopy2023.1.3,2023.1.3,74.98277523423715,
0,0,0,0,,,,,,,,,,,#F989A2,321.17107105255127,41.39900207519531,None,None,None,642.4251483721819,text_02,44,1,1,1,Reading_Baseline_main_no_click,None,und,,,,,OA03,001,no,1500,2000,126,345,424,2024-08-26_10h59.12.363,EXNAT_3_fMRI_Psychopy2023.1.3,2023.1.3,74.98277523423715,
0,0,0,0,,,,,,,,,,,#D292F3,321.824059009552,42.051990032196045,None,None,None,678.6730895011062,text_02,45,1,1,1,Reading_Baseline_main_no_click,None,nach,,,,,OA03,001,no,1500,2000,126,345,424,2024-08-26_10h59.12.363,EXNAT_3_fMRI_Psychopy2023.1.3,2023.1.3,74.98277523423715,
0,0,0,0,,,,,,,,,,,#88BA3F,322.5175790786743,42.74551010131836,None,None,None,827.1836190401536,text_02,46,1,1,1,Reading_Baseline_main_no_click,None,digitalisiert,,,,,OA03,001,no,1500,2000,126,345,424,2024-08-26_10h59.12.363,EXNAT_3_fMRI_Psychopy2023.1.3,2023.1.3,74.98277523423715,
0,0,0,0,,,,,,,,,,,#88BA3F,323.3570830821991,43.58501410484314,None,None,None,749.1846787809695,text_02,47,1,1,1,Reading_Baseline_main_no_click,None,worden.,,,,,OA03,001,no,1500,2000,126,345,424,2024-08-26_10h59.12.363,EXNAT_3_fMRI_Psychopy2023.1.3,2023.1.3,74.98277523423715,
0,0,0,0,,,,,,,,,,,#F989A2,324.1174659729004,44.345396995544434,None,None,None,642.4251483721819,text_02,48,1,1,1,Reading_Baseline_main_no_click,None,Nun,,,,,OA03,001,no,1500,2000,126,345,424,2024-08-26_10h59.12.363,EXNAT_3_fMRI_Psychopy2023.1.3,2023.1.3,74.98277523423715,
0,0,0,0,,,,,,,,,,,#D292F3,324.769828081131,44.997759103775024,None,None,None,678.6730895011062,text_02,49,1,1,1,Reading_Baseline_main_no_click,None,will,,,,,OA03,001,no,1500,2000,126,345,424,2024-08-26_10h59.12.363,EXNAT_3_fMRI_Psychopy2023.1.3,2023.1.3,74.98277523423715,
0,0,0,0,,,,,,,,,,,#D292F3,325.4628269672394,45.69075798988342,None,None,None,642.4251483721819,text_02,50,1,1,1,Reading_Baseline_main_no_click,None,man,,,,,OA03,001,no,1500,2000,126,345,424,2024-08-26_10h59.12.363,EXNAT_3_fMRI_Psychopy2023.1.3,2023.1.3,74.98277523423715,
0,0,0,0,,,,,,,,,,,#D292F3,326.115914106369,46.34384512901306,None,None,None,642.4251483721819,text_02,51,1,1,1,Reading_Baseline_main_no_click,None,sie,,,,,OA03,001,no,1500,2000,126,345,424,2024-08-26_10h59.12.363,EXNAT_3_fMRI_Psychopy2023.1.3,2023.1.3,74.98277523423715,
0,0,0,0,,,,,,,,,,,#2AB7EF,326.76928901672363,46.997220039367676,None,None,None,766.0096342516592,text_02,52,1,1,1,Reading_Baseline_main_no_click,None,zunächst,,,,,OA03,001,no,1500,2000,126,345,424,2024-08-26_10h59.12.363,EXNAT_3_fMRI_Psychopy2023.1.3,2023.1.3,74.98277523423715,
0,0,0,0,,,,,,,,,,,#F989A2,327.54207015037537,47.77000117301941,None,None,None,630.0,text_02,53,1,1,1,Reading_Baseline_main_no_click,None,in,,,,,OA03,001,no,1500,2000,126,345,424,2024-08-26_10h59.12.363,EXNAT_3_fMRI_Psychopy2023.1.3,2023.1.3,74.98277523423715,
0,0,0,0,,,,,,,,,,,#88BA3F,328.18189907073975,48.40983009338379,None,None,None,678.6730895011062,text_02,54,1,1,1,Reading_Baseline_main_no_click,None,Kuba,,,,,OA03,001,no,1500,2000,126,345,424,2024-08-26_10h59.12.363,EXNAT_3_fMRI_Psychopy2023.1.3,2023.1.3,74.98277523423715,
0,0,0,0,,,,,,,,,,,#F989A2,328.87512707710266,49.103058099746704,None,None,None,749.1846787809695,text_02,55,1,1,1,Reading_Baseline_main_no_click,None,"zeigen,",,,,,OA03,001,no,1500,2000,126,345,424,2024-08-26_10h59.12.363,EXNAT_3_fMRI_Psychopy2023.1.3,2023.1.3,74.98277523423715,
0,0,0,0,,,,,,,,,,,#88BA3F,329.6348490715027,49.86278009414673,None,None,None,706.7891769666967,text_02,56,1,1,1,Reading_Baseline_main_no_click,None,bevor,,,,,OA03,001,no,1500,2000,126,345,424,2024-08-26_10h59.12.363,EXNAT_3_fMRI_Psychopy2023.1.3,2023.1.3,74.98277523423715,
0,0,0,0,,,,,,,,,,,#88BA3F,330.35444808006287,50.58237910270691,None,None,None,642.4251483721819,text_02,57,1,1,1,Reading_Baseline_main_no_click,None,sie,,,,,OA03,001,no,1500,2000,126,345,424,2024-08-26_10h59.12.363,EXNAT_3_fMRI_Psychopy2023.1.3,2023.1.3,74.98277523423715,
0,0,0,0,,,,,,,,,,,#F989A2,331.00778794288635,51.235718965530396,None,None,None,678.6730895011062,text_02,58,1,1,1,Reading_Baseline_main_no_click,None,dann,,,,,OA03,001,no,1500,2000,126,345,424,2024-08-26_10h59.12.363,EXNAT_3_fMRI_Psychopy2023.1.3,2023.1.3,74.98277523423715,
0,0,0,0,,,,,,,,,,,#2AB7EF,331.70101404190063,51.92894506454468,None,None,None,642.4251483721819,text_02,59,1,1,1,Reading_Baseline_main_no_click,None,der,,,,,OA03,001,no,1500,2000,126,345,424,2024-08-26_10h59.12.363,EXNAT_3_fMRI_Psychopy2023.1.3,2023.1.3,74.98277523423715,
0,0,0,0,,,,,,,,,,,#F989A2,332.35499596595764,52.582926988601685,None,None,None,794.1257217172498,text_02,60,1,1,1,Reading_Baseline_main_no_click,None,Bibliothek,,,,,OA03,001,no,1500,2000,126,345,424,2024-08-26_10h59.12.363,EXNAT_3_fMRI_Psychopy2023.1.3,2023.1.3,74.98277523423715,
0,0,0,0,,,,,,,,,,,#2AB7EF,333.15385007858276,53.38178110122681,None,None,None,642.4251483721819,text_02,61,1,1,1,Reading_Baseline_main_no_click,None,von,,,,,OA03,001,no,1500,2000,126,345,424,2024-08-26_10h59.12.363,EXNAT_3_fMRI_Psychopy2023.1.3,2023.1.3,74.98277523423715,
0,0,0,0,,,,,,,,,,,#D292F3,333.8073649406433,54.03529596328735,None,None,None,729.7616931227349,text_02,62,1,1,1,Reading_Baseline_main_no_click,None,Boston,,,,,OA03,001,no,1500,2000,126,345,424,2024-08-26_10h59.12.363,EXNAT_3_fMRI_Psychopy2023.1.3,2023.1.3,74.98277523423715,
0,0,0,0,,,,,,,,,,,#F989A2,334.54222297668457,54.77015399932861,None,None,None,780.8502967443637,text_02,63,1,1,1,Reading_Baseline_main_no_click,None,übergeben,,,,,OA03,001,no,1500,2000,126,345,424,2024-08-26_10h59.12.363,EXNAT_3_fMRI_Psychopy2023.1.3,2023.1.3,74.98277523423715,
0,0,0,0,,,,,,,,,,,#D292F3,335.3279809951782,55.555912017822266,None,None,None,749.1846787809695,text_02,64,1,1,1,Reading_Baseline_main_no_click,None,werden.,,,,,OA03,001,no,1500,2000,126,345,424,2024-08-26_10h59.12.363,EXNAT_3_fMRI_Psychopy2023.1.3,2023.1.3,74.98277523423715,
0,0,0,0,,,,,,,,,,,#F989A2,336.0874400138855,56.31537103652954,None,None,None,642.4251483721819,text_02,65,1,1,1,Reading_Baseline_main_no_click,None,Die,,,,,OA03,001,no,1500,2000,126,345,424,2024-08-26_10h59.12.363,EXNAT_3_fMRI_Psychopy2023.1.3,2023.1.3,74.98277523423715,
0,0,0,0,,,,,,,,,,,#88BA3F,336.74152398109436,56.9694550037384,None,None,None,766.0096342516592,text_02,66,1,1,1,Reading_Baseline_main_no_click,None,Leiterin,,,,,OA03,001,no,1500,2000,126,345,424,2024-08-26_10h59.12.363,EXNAT_3_fMRI_Psychopy2023.1.3,2023.1.3,74.98277523423715,
0,0,0,0,,,,,,,,,,,#2AB7EF,337.513631105423,57.74156212806702,None,None,None,642.4251483721819,text_02,67,1,1,1,Reading_Baseline_main_no_click,None,des,,,,,OA03,001,no,1500,2000,126,345,424,2024-08-26_10h59.12.363,EXNAT_3_fMRI_Psychopy2023.1.3,2023.1.3,74.98277523423715,
0,0,0,0,,,,,,,,,,,#88BA3F,338.1669681072235,58.394899129867554,None,None,None,749.1846787809695,text_02,68,1,1,1,Reading_Baseline_main_no_click,None,Archivs,,,,,OA03,001,no,1500,2000,126,345,424,2024-08-26_10h59.12.363,EXNAT_3_fMRI_Psychopy2023.1.3,2023.1.3,74.98277523423715,
0,0,0,0,,,,,,,,,,,#F989A2,338.9263439178467,59.15427494049072,None,None,None,630.0,text_02,69,1,1,1,Reading_Baseline_main_no_click,None,in,,,,,OA03,001,no,1500,2000,126,345,424,2024-08-26_10h59.12.363,EXNAT_3_fMRI_Psychopy2023.1.3,2023.1.3,74.98277523423715,
0,0,0,0,,,,,,,,,,,#88BA3F,339.5664999485016,59.79443097114563,None,None,None,706.7891769666967,text_02,70,1,1,1,Reading_Baseline_main_no_click,None,Vigía,,,,,OA03,001,no,1500,2000,126,345,424,2024-08-26_10h59.12.363,EXNAT_3_fMRI_Psychopy2023.1.3,2023.1.3,74.98277523423715,
0,0,0,0,,,,,,,,,,,#2AB7EF,340.28589701652527,60.51382803916931,None,None,None,706.7891769666967,text_02,71,1,1,1,Reading_Baseline_main_no_click,None,sagte,,,,,OA03,001,no,1500,2000,126,345,424,2024-08-26_10h59.12.363,EXNAT_3_fMRI_Psychopy2023.1.3,2023.1.3,74.98277523423715,
0,0,0,0,,,,,,,,,,,#D292F3,341.005450963974,61.23338198661804,None,None,None,630.0,text_02,72,1,1,1,Reading_Baseline_main_no_click,None,am,,,,,OA03,001,no,1500,2000,126,345,424,2024-08-26_10h59.12.363,EXNAT_3_fMRI_Psychopy2023.1.3,2023.1.3,74.98277523423715,
0,0,0,0,,,,,,,,,,,#F989A2,341.64567494392395,61.87360596656799,None,None,None,729.7616931227349,text_02,73,1,1,1,Reading_Baseline_main_no_click,None,Montag,,,,,OA03,001,no,1500,2000,126,345,424,2024-08-26_10h59.12.363,EXNAT_3_fMRI_Psychopy2023.1.3,2023.1.3,74.98277523423715,
0,0,0,0,,,,,,,,,,,#2AB7EF,342.3783481121063,62.606279134750366,None,None,None,630.0,text_02,74,1,1,1,Reading_Baseline_main_no_click,None,im,,,,,OA03,001,no,1500,2000,126,345,424,2024-08-26_10h59.12.363,EXNAT_3_fMRI_Psychopy2023.1.3,2023.1.3,74.98277523423715,
0,0,0,0,,,,,,,,,,,#2AB7EF,343.01901292800903,63.246943950653076,None,None,None,806.1348043725948,text_02,75,1,1,1,Reading_Baseline_main_no_click,None,kubanischen,,,,,OA03,001,no,1500,2000,126,345,424,2024-08-26_10h59.12.363,EXNAT_3_fMRI_Psychopy2023.1.3,2023.1.3,74.98277523423715,
0,0,0,0,,,,,,,,,,,#D292F3,343.8319160938263,64.05984711647034,None,None,None,794.1257217172498,text_02,76,1,1,1,Reading_Baseline_main_no_click,None,"Fernsehen,",,,,,OA03,001,no,1500,2000,126,345,424,2024-08-26_10h59.12.363,EXNAT_3_fMRI_Psychopy2023.1.3,2023.1.3,74.98277523423715,
0,0,0,0,,,,,,,,,,,#88BA3F,344.6308479309082,64.85877895355225,None,None,None,630.0,text_02,77,1,1,1,Reading_Baseline_main_no_click,None,es,,,,,OA03,001,no,1500,2000,126,345,424,2024-08-26_10h59.12.363,EXNAT_3_fMRI_Psychopy2023.1.3,2023.1.3,74.98277523423715,
0,0,0,0,,,,,,,,,,,#F989A2,345.2708339691162,65.49876499176025,None,None,None,749.1846787809695,text_02,78,1,1,1,Reading_Baseline_main_no_click,None,handele,,,,,OA03,001,no,1500,2000,126,345,424,2024-08-26_10h59.12.363,EXNAT_3_fMRI_Psychopy2023.1.3,2023.1.3,74.98277523423715,
0,0,0,0,,,,,,,,,,,#D292F3,346.03035402297974,66.25828504562378,None,None,None,678.6730895011062,text_02,79,1,1,1,Reading_Baseline_main_no_click,None,sich,,,,,OA03,001,no,1500,2000,126,345,424,2024-08-26_10h59.12.363,EXNAT_3_fMRI_Psychopy2023.1.3,2023.1.3,74.98277523423715,
0,0,0,0,,,,,,,,,,,#88BA3F,346.7234399318695,66.95137095451355,None,None,None,630.0,text_02,80,1,1,1,Reading_Baseline_main_no_click,None,um,,,,,OA03,001,no,1500,2000,126,345,424,2024-08-26_10h59.12.363,EXNAT_3_fMRI_Psychopy2023.1.3,2023.1.3,74.98277523423715,
0,0,0,0,,,,,,,,,,,#F989A2,347.3634009361267,67.59133195877075,None,None,None,729.7616931227349,text_02,81,1,1,1,Reading_Baseline_main_no_click,None,bisher,,,,,OA03,001,no,1500,2000,126,345,424,2024-08-26_10h59.12.363,EXNAT_3_fMRI_Psychopy2023.1.3,2023.1.3,74.98277523423715,
0,0,0,0,,,,,,,,,,,#2AB7EF,348.16600012779236,68.3939311504364,None,None,None,860.9848813510832,text_02,82,1,1,1,Reading_Baseline_main_no_click,None,unveröffentlichte,,,,,OA03,001,no,1500,2000,126,345,424,2024-08-26_10h59.12.363,EXNAT_3_fMRI_Psychopy2023.1.3,2023.1.3,74.98277523423715,
0,0,0,0,,,,,,,,,,,#F989A2,349.02981996536255,69.25775098800659,None,None,None,749.1846787809695,text_02,83,1,1,1,Reading_Baseline_main_no_click,None,Stücke.,,,,,OA03,001,no,1500,2000,126,345,424,2024-08-26_10h59.12.363,EXNAT_3_fMRI_Psychopy2023.1.3,2023.1.3,74.98277523423715,
0,0,0,0,,,,,,,,,,,#D292F3,349.7890269756317,70.01695799827576,None,None,None,642.4251483721819,text_02,84,1,1,1,Reading_Baseline_main_no_click,None,Die,,,,,OA03,001,no,1500,2000,126,345,424,2024-08-26_10h59.12.363,EXNAT_3_fMRI_Psychopy2023.1.3,2023.1.3,74.98277523423715,
0,0,0,0,,,,,,,,,,,#88BA3F,350.4425411224365,70.67047214508057,None,None,None,845.2143253388786,text_02,85,1,1,1,Reading_Baseline_main_no_click,None,Digitalisierung,,,,,OA03,001,no,1500,2000,126,345,424,2024-08-26_10h59.12.363,EXNAT_3_fMRI_Psychopy2023.1.3,2023.1.3,74.98277523423715,
0,0,0,0,,,,,,,,,,,#D292F3,351.29526114463806,71.5231921672821,None,None,None,642.4251483721819,text_02,86,1,1,1,Reading_Baseline_main_no_click,None,war,,,,,OA03,001,no,1500,2000,126,345,424,2024-08-26_10h59.12.363,EXNAT_3_fMRI_Psychopy2023.1.3,2023.1.3,74.98277523423715,
0,0,0,0,,,,,,,,,,,#D292F3,351.948548078537,72.17647910118103,None,None,None,766.0096342516592,text_02,87,1,1,1,Reading_Baseline_main_no_click,None,zwischen,,,,,OA03,001,no,1500,2000,126,345,424,2024-08-26_10h59.12.363,EXNAT_3_fMRI_Psychopy2023.1.3,2023.1.3,74.98277523423715,
0,0,0,0,,,,,,,,,,,#2AB7EF,352.7214300632477,72.94936108589172,None,None,None,642.4251483721819,text_02,88,1,1,1,Reading_Baseline_main_no_click,None,den,,,,,OA03,001,no,1500,2000,126,345,424,2024-08-26_10h59.12.363,EXNAT_3_fMRI_Psychopy2023.1.3,2023.1.3,74.98277523423715,
0,0,0,0,,,,,,,,,,,#2AB7EF,353.37518310546875,73.6031141281128,None,None,None,642.4251483721819,text_02,89,1,1,1,Reading_Baseline_main_no_click,None,USA,,,,,OA03,001,no,1500,2000,126,345,424,2024-08-26_10h59.12.363,EXNAT_3_fMRI_Psychopy2023.1.3,2023.1.3,74.98277523423715,
0,0,0,0,,,,,,,,,,,#D292F3,354.02756094932556,74.2554919719696,None,None,None,642.4251483721819,text_02,90,1,1,1,Reading_Baseline_main_no_click,None,und,,,,,OA03,001,no,1500,2000,126,345,424,2024-08-26_10h59.12.363,EXNAT_3_fMRI_Psychopy2023.1.3,2023.1.3,74.98277523423715,
0,0,0,0,,,,,,,,,,,#88BA3F,354.680673122406,74.90860414505005,None,None,None,678.6730895011062,text_02,91,1,1,1,Reading_Baseline_main_no_click,None,Kuba,,,,,OA03,001,no,1500,2000,126,345,424,2024-08-26_10h59.12.363,EXNAT_3_fMRI_Psychopy2023.1.3,2023.1.3,74.98277523423715,
0,0,0,0,,,,,,,,,,,#F989A2,355.37396693229675,75.6018979549408,None,None,None,749.1846787809695,text_02,92,1,1,1,Reading_Baseline_main_no_click,None,bereits,,,,,OA03,001,no,1500,2000,126,345,424,2024-08-26_10h59.12.363,EXNAT_3_fMRI_Psychopy2023.1.3,2023.1.3,74.98277523423715,
0,0,0,0,,,,,,,,,,,#F989A2,356.1338200569153,76.36175107955933,None,None,None,678.6730895011062,text_02,93,1,1,1,Reading_Baseline_main_no_click,None,2002,,,,,OA03,001,no,1500,2000,126,345,424,2024-08-26_10h59.12.363,EXNAT_3_fMRI_Psychopy2023.1.3,2023.1.3,74.98277523423715,
0,0,0,0,,,,,,,,,,,#2AB7EF,356.8267819881439,77.05471301078796,None,None,None,794.1257217172498,text_02,94,1,1,1,Reading_Baseline_main_no_click,None,vereinbart,,,,,OA03,001,no,1500,2000,126,345,424,2024-08-26_10h59.12.363,EXNAT_3_fMRI_Psychopy2023.1.3,2023.1.3,74.98277523423715,
0,0,0,0,,,,,,,,,,,#F989A2,357.626590013504,77.85452103614807,None,None,None,749.1846787809695,text_02,95,1,1,1,Reading_Baseline_main_no_click,None,worden.,,,,,OA03,001,no,1500,2000,126,345,424,2024-08-26_10h59.12.363,EXNAT_3_fMRI_Psychopy2023.1.3,2023.1.3,74.98277523423715,
0,0,0,0,,,,,,,,,,,#88BA3F,358.38619208335876,78.61412310600281,None,None,None,729.7616931227349,text_02,96,1,1,1,Reading_Baseline_main_no_click,None,Damals,,,,,OA03,001,no,1500,2000,126,345,424,2024-08-26_10h59.12.363,EXNAT_3_fMRI_Psychopy2023.1.3,2023.1.3,74.98277523423715,
0,0,0,0,,,,,,,,,,,#F989A2,359.11930799484253,79.34723901748657,None,None,None,794.1257217172498,text_02,97,1,1,1,Reading_Baseline_main_no_click,None,berichtete,,,,,OA03,001,no,1500,2000,126,345,424,2024-08-26_10h59.12.363,EXNAT_3_fMRI_Psychopy2023.1.3,2023.1.3,74.98277523423715,
0,0,0,0,,,,,,,,,,,#D292F3,359.91905212402344,80.14698314666748,None,None,None,642.4251483721819,text_02,98,1,1,1,Reading_Baseline_main_no_click,None,die,,,,,OA03,001,no,1500,2000,126,345,424,2024-08-26_10h59.12.363,EXNAT_3_fMRI_Psychopy2023.1.3,2023.1.3,74.98277523423715,
0,0,0,0,,,,,,,,,,,#F989A2,360.5724699497223,80.80040097236633,None,None,None,678.6730895011062,text_02,99,1,1,1,Reading_Baseline_main_no_click,None,""New,,,,,OA03,001,no,1500,2000,126,345,424,2024-08-26_10h59.12.363,EXNAT_3_fMRI_Psychopy2023.1.3,2023.1.3,74.98277523423715,
0,0,0,0,,,,,,,,,,,#88BA3F,361.2656669616699,81.49359798431396,None,None,None,678.6730895011062,text_02,100,1,1,1,Reading_Baseline_main_no_click,None,York,,,,,OA03,001,no,1500,2000,126,345,424,2024-08-26_10h59.12.363,EXNAT_3_fMRI_Psychopy2023.1.3,2023.1.3,74.98277523423715,
0,0,0,0,,,,,,,,,,,#D292F3,361.95849895477295,82.18642997741699,None,None,None,749.1846787809695,text_02,101,1,1,1,Reading_Baseline_main_no_click,None,"Times"",",,,,,OA03,001,no,1500,2000,126,345,424,2024-08-26_10h59.12.363,EXNAT_3_fMRI_Psychopy2023.1.3,2023.1.3,74.98277523423715,
0,0,0,0,,,,,,,,,,,#F989A2,362.7179789543152,82.94590997695923,None,None,None,706.7891769666967,text_02,102,1,1,1,Reading_Baseline_main_no_click,None,unter,,,,,OA03,001,no,1500,2000,126,345,424,2024-08-26_10h59.12.363,EXNAT_3_fMRI_Psychopy2023.1.3,2023.1.3,74.98277523423715,
0,0,0,0,,,,,,,,,,,#88BA3F,363.4375669956207,83.66549801826477,None,None,None,642.4251483721819,text_02,103,1,1,1,Reading_Baseline_main_no_click,None,den,,,,,OA03,001,no,1500,2000,126,345,424,2024-08-26_10h59.12.363,EXNAT_3_fMRI_Psychopy2023.1.3,2023.1.3,74.98277523423715,
0,0,0,0,,,,,,,,,,,#2AB7EF,364.0911431312561,84.31907415390015,None,None,None,794.1257217172498,text_02,104,1,1,1,Reading_Baseline_main_no_click,None,Dokumenten,,,,,OA03,001,no,1500,2000,126,345,424,2024-08-26_10h59.12.363,EXNAT_3_fMRI_Psychopy2023.1.3,2023.1.3,74.98277523423715,
0,0,0,0,,,,,,,,,,,#D292F3,364.8908920288086,85.11882305145264,None,None,None,766.0096342516592,text_02,105,1,1,1,Reading_Baseline_main_no_click,None,befänden,,,,,OA03,001,no,1500,2000,126,345,424,2024-08-26_10h59.12.363,EXNAT_3_fMRI_Psychopy2023.1.3,2023.1.3,74.98277523423715,
0,0,0,0,,,,,,,,,,,#F989A2,365.6634759902954,85.89140701293945,None,None,None,678.6730895011062,text_02,106,1,1,1,Reading_Baseline_main_no_click,None,sich,,,,,OA03,001,no,1500,2000,126,345,424,2024-08-26_10h59.12.363,EXNAT_3_fMRI_Psychopy2023.1.3,2023.1.3,74.98277523423715,
0,0,0,0,,,,,,,,,,,#2AB7EF,366.3573160171509,86.58524703979492,None,None,None,729.7616931227349,text_02,107,1,1,1,Reading_Baseline_main_no_click,None,"Texte,",,,,,OA03,001,no,1500,2000,126,345,424,2024-08-26_10h59.12.363,EXNAT_3_fMRI_Psychopy2023.1.3,2023.1.3,74.98277523423715,
0,0,0,0,,,,,,,,,,,#D292F3,367.0896580219269,87.31758904457092,None,None,None,642.4251483721819,text_02,108,1,1,1,Reading_Baseline_main_no_click,None,die,,,,,OA03,001,no,1500,2000,126,345,424,2024-08-26_10h59.12.363,EXNAT_3_fMRI_Psychopy2023.1.3,2023.1.3,74.98277523423715,
0,0,0,0,,,,,,,,,,,#F989A2,367.7428810596466,87.97081208229065,None,None,None,642.4251483721819,text_02,109,1,1,1,Reading_Baseline_main_no_click,None,auf,,,,,OA03,001,no,1500,2000,126,345,424,2024-08-26_10h59.12.363,EXNAT_3_fMRI_Psychopy2023.1.3,2023.1.3,74.98277523423715,
0,0,0,0,,,,,,,,,,,#D292F3,368.395859003067,88.62379002571106,None,None,None,678.6730895011062,text_02,110,1,1,1,Reading_Baseline_main_no_click,None,lose,,,,,OA03,001,no,1500,2000,126,345,424,2024-08-26_10h59.12.363,EXNAT_3_fMRI_Psychopy2023.1.3,2023.1.3,74.98277523423715,
0,0,0,0,,,,,,,,,,,#2AB7EF,369.089271068573,89.31720209121704,None,None,None,749.1846787809695,text_02,111,1,1,1,Reading_Baseline_main_no_click,None,Blätter,,,,,OA03,001,no,1500,2000,126,345,424,2024-08-26_10h59.12.363,EXNAT_3_fMRI_Psychopy2023.1.3,2023.1.3,74.98277523423715,
0,0,0,0,,,,,,,,,,,#88BA3F,369.8486671447754,90.07659816741943,None,None,None,642.4251483721819,text_02,112,1,1,1,Reading_Baseline_main_no_click,None,und,,,,,OA03,001,no,1500,2000,126,345,424,2024-08-26_10h59.12.363,EXNAT_3_fMRI_Psychopy2023.1.3,2023.1.3,74.98277523423715,
0,0,0,0,,,,,,,,,,,#2AB7EF,370.50255703926086,90.73048806190491,None,None,None,794.1257217172498,text_02,113,1,1,1,Reading_Baseline_main_no_click,None,Buchrücken,,,,,OA03,001,no,1500,2000,126,345,424,2024-08-26_10h59.12.363,EXNAT_3_fMRI_Psychopy2023.1.3,2023.1.3,74.98277523423715,
0,0,0,0,,,,,,,,,,,#F989A2,371.30243396759033,91.53036499023438,None,None,None,794.1257217172498,text_02,114,1,1,1,Reading_Baseline_main_no_click,None,gekritzelt,,,,,OA03,001,no,1500,2000,126,345,424,2024-08-26_10h59.12.363,EXNAT_3_fMRI_Psychopy2023.1.3,2023.1.3,74.98277523423715,
0,0,0,0,,,,,,,,,,,#F989A2,372.1017601490021,92.32969117164612,None,None,None,729.7616931227349,text_02,115,1,1,1,Reading_Baseline_main_no_click,None,worden,,,,,OA03,001,no,1500,2000,126,345,424,2024-08-26_10h59.12.363,EXNAT_3_fMRI_Psychopy2023.1.3,2023.1.3,74.98277523423715,
0,0,0,0,,,,,,,,,,,#D292F3,372.83483600616455,93.0627670288086,None,None,None,729.7616931227349,text_02,116,1,1,1,Reading_Baseline_main_no_click,None,seien.,,,,,OA03,001,no,1500,2000,126,345,424,2024-08-26_10h59.12.363,EXNAT_3_fMRI_Psychopy2023.1.3,2023.1.3,74.98277523423715,
0,0,0,0,,,,,,,,,,,#88BA3F,373.5676209926605,93.79555201530457,None,None,None,678.6730895011062,text_02,117,1,1,1,Reading_Baseline_main_no_click,None,Dies,,,,,OA03,001,no,1500,2000,126,345,424,2024-08-26_10h59.12.363,EXNAT_3_fMRI_Psychopy2023.1.3,2023.1.3,74.98277523423715,
0,0,0,0,,,,,,,,,,,#2AB7EF,374.26083397865295,94.488765001297,None,None,None,706.7891769666967,text_02,118,1,1,1,Reading_Baseline_main_no_click,None,seien,,,,,OA03,001,no,1500,2000,126,345,424,2024-08-26_10h59.12.363,EXNAT_3_fMRI_Psychopy2023.1.3,2023.1.3,74.98277523423715,
0,0,0,0,,,,,,,,,,,#88BA3F,374.9802420139313,95.20817303657532,None,None,None,642.4251483721819,text_02,119,1,1,1,Reading_Baseline_main_no_click,None,vor,,,,,OA03,001,no,1500,2000,126,345,424,2024-08-26_10h59.12.363,EXNAT_3_fMRI_Psychopy2023.1.3,2023.1.3,74.98277523423715,
0,0,0,0,,,,,,,,,,,#D292F3,375.633504152298,95.86143517494202,None,None,None,706.7891769666967,text_02,120,1,1,1,Reading_Baseline_main_no_click,None,allem,,,,,OA03,001,no,1500,2000,126,345,424,2024-08-26_10h59.12.363,EXNAT_3_fMRI_Psychopy2023.1.3,2023.1.3,74.98277523423715,
0,0,0,0,,,,,,,,,,,#2AB7EF,376.3539900779724,96.58192110061646,None,None,None,749.1846787809695,text_02,121,1,1,1,Reading_Baseline_main_no_click,None,"Briefe,",,,,,OA03,001,no,1500,2000,126,345,424,2024-08-26_10h59.12.363,EXNAT_3_fMRI_Psychopy2023.1.3,2023.1.3,74.98277523423715,
0,0,0,0,,,,,,,,,,,#D292F3,377.1132891178131,97.34122014045715,None,None,None,766.0096342516592,text_02,122,1,1,1,Reading_Baseline_main_no_click,None,Entwürfe,,,,,OA03,001,no,1500,2000,126,345,424,2024-08-26_10h59.12.363,EXNAT_3_fMRI_Psychopy2023.1.3,2023.1.3,74.98277523423715,
0,0,0,0,,,,,,,,,,,#F989A2,377.88606810569763,98.11399912834167,None,None,None,642.4251483721819,text_02,123,1,1,1,Reading_Baseline_main_no_click,None,und,,,,,OA03,001,no,1500,2000,126,345,424,2024-08-26_10h59.12.363,EXNAT_3_fMRI_Psychopy2023.1.3,2023.1.3,74.98277523423715,
0,0,0,0,,,,,,,,,,,#88BA3F,378.5393240451813,98.76725506782532,None,None,None,836.5212235315225,text_02,124,1,1,1,Reading_Baseline_main_no_click,None,Aufzeichnungen,,,,,OA03,001,no,1500,2000,126,345,424,2024-08-26_10h59.12.363,EXNAT_3_fMRI_Psychopy2023.1.3,2023.1.3,74.98277523423715,
0,0,0,0,,,,,,,,,,,#2AB7EF,379.3786849975586,99.60661602020264,None,None,None,630.0,text_02,125,1,1,1,Reading_Baseline_main_no_click,None,zu,,,,,OA03,001,no,1500,2000,126,345,424,2024-08-26_10h59.12.363,EXNAT_3_fMRI_Psychopy2023.1.3,2023.1.3,74.98277523423715,
0,0,0,0,,,,,,,,,,,#F989A2,380.01873803138733,100.24666905403137,None,None,None,794.1257217172498,text_02,126,1,1,1,Reading_Baseline_main_no_click,None,Hemingways,,,,,OA03,001,no,1500,2000,126,345,424,2024-08-26_10h59.12.363,EXNAT_3_fMRI_Psychopy2023.1.3,2023.1.3,74.98277523423715,
0,0,0,0,,,,,,,,,,,#88BA3F,380.81905794143677,101.04698896408081,None,None,None,729.7616931227349,text_02,127,1,1,1,Reading_Baseline_main_no_click,None,großen,,,,,OA03,001,no,1500,2000,126,345,424,2024-08-26_10h59.12.363,EXNAT_3_fMRI_Psychopy2023.1.3,2023.1.3,74.98277523423715,
0,0,0,0,,,,,,,,,,,#2AB7EF,381.55231404304504,101.78024506568909,None,None,None,766.0096342516592,text_02,128,1,1,1,Reading_Baseline_main_no_click,None,Romanen.,,,,,OA03,001,no,1500,2000,126,345,424,2024-08-26_10h59.12.363,EXNAT_3_fMRI_Psychopy2023.1.3,2023.1.3,74.98277523423715,
0,0,0,0,,,,,,,,,,,#D292F3,382.32428908348083,102.55222010612488,None,None,None,642.4251483721819,text_02,129,1,1,1,Reading_Baseline_main_no_click,None,Der,,,,,OA03,001,no,1500,2000,126,345,424,2024-08-26_10h59.12.363,EXNAT_3_fMRI_Psychopy2023.1.3,2023.1.3,74.98277523423715,
0,0,0,0,,,,,,,,,,,#88BA3F,382.9778199195862,103.20575094223022,None,None,None,749.1846787809695,text_02,130,1,1,1,Reading_Baseline_main_no_click,None,Biograf,,,,,OA03,001,no,1500,2000,126,345,424,2024-08-26_10h59.12.363,EXNAT_3_fMRI_Psychopy2023.1.3,2023.1.3,74.98277523423715,
0,0,0,0,,,,,,,,,,,#88BA3F,383.737468957901,103.96539998054504,None,None,None,794.1257217172498,text_02,131,1,1,1,Reading_Baseline_main_no_click,None,Hemingways,,,,,OA03,001,no,1500,2000,126,345,424,2024-08-26_10h59.12.363,EXNAT_3_fMRI_Psychopy2023.1.3,2023.1.3,74.98277523423715,
0,0,0,0,,,,,,,,,,,#D292F3,384.53706192970276,104.7649929523468,None,None,None,729.7616931227349,text_02,132,1,1,1,Reading_Baseline_main_no_click,None,nannte,,,,,OA03,001,no,1500,2000,126,345,424,2024-08-26_10h59.12.363,EXNAT_3_fMRI_Psychopy2023.1.3,2023.1.3,74.98277523423715,
0,0,0,0,,,,,,,,,,,#88BA3F,385.2699730396271,105.49790406227112,None,None,None,642.4251483721819,text_02,133,1,1,1,Reading_Baseline_main_no_click,None,den,,,,,OA03,001,no,1500,2000,126,345,424,2024-08-26_10h59.12.363,EXNAT_3_fMRI_Psychopy2023.1.3,2023.1.3,74.98277523423715,
0,0,0,0,,,,,,,,,,,#F989A2,385.92323994636536,106.1511709690094,None,None,None,766.0096342516592,text_02,134,1,1,1,Reading_Baseline_main_no_click,None,gesamten,,,,,OA03,001,no,1500,2000,126,345,424,2024-08-26_10h59.12.363,EXNAT_3_fMRI_Psychopy2023.1.3,2023.1.3,74.98277523423715,
0,0,0,0,,,,,,,,,,,#D292F3,386.696524143219,106.92445516586304,None,None,None,766.0096342516592,text_02,135,1,1,1,Reading_Baseline_main_no_click,None,Nachlass,,,,,OA03,001,no,1500,2000,126,345,424,2024-08-26_10h59.12.363,EXNAT_3_fMRI_Psychopy2023.1.3,2023.1.3,74.98277523423715,
0,0,0,0,,,,,,,,,,,#88BA3F,387.4693400859833,107.69727110862732,None,None,None,678.6730895011062,text_02,136,1,1,1,Reading_Baseline_main_no_click,None,eine,,,,,OA03,001,no,1500,2000,126,345,424,2024-08-26_10h59.12.363,EXNAT_3_fMRI_Psychopy2023.1.3,2023.1.3,74.98277523423715,
0,0,0,0,,,,,,,,,,,#F989A2,388.16319513320923,108.39112615585327,None,None,None,874.9993113749715,text_02,137,1,1,1,Reading_Baseline_main_no_click,None,""Computertomografie,,,,,OA03,001,no,1500,2000,126,345,424,2024-08-26_10h59.12.363,EXNAT_3_fMRI_Psychopy2023.1.3,2023.1.3,74.98277523423715,
0,0,0,0,,,,,,,,,,,#88BA3F,389.0419399738312,109.26987099647522,None,None,None,642.4251483721819,text_02,138,1,1,1,Reading_Baseline_main_no_click,None,von,,,,,OA03,001,no,1500,2000,126,345,424,2024-08-26_10h59.12.363,EXNAT_3_fMRI_Psychopy2023.1.3,2023.1.3,74.98277523423715,
0,0,0,0,,,,,,,,,,,#2AB7EF,389.6952500343323,109.92318105697632,None,None,None,794.1257217172498,text_02,139,1,1,1,Reading_Baseline_main_no_click,None,Hemingways,,,,,OA03,001,no,1500,2000,126,345,424,2024-08-26_10h59.12.363,EXNAT_3_fMRI_Psychopy2023.1.3,2023.1.3,74.98277523423715,
0,0,0,0,,,,,,,,,,,#F989A2,390.4955310821533,110.72346210479736,None,None,None,766.0096342516592,text_02,140,1,1,1,Reading_Baseline_main_no_click,None,Gehirn"".,,,,,OA03,001,no,1500,2000,126,345,424,2024-08-26_10h59.12.363,EXNAT_3_fMRI_Psychopy2023.1.3,2023.1.3,74.98277523423715,
0,0,0,0,,,,,,,,,,,#2AB7EF,391.26791501045227,111.49584603309631,None,None,None,630.0,text_02,141,1,1,1,Reading_Baseline_main_no_click,None,In,,,,,OA03,001,no,1500,2000,126,345,424,2024-08-26_10h59.12.363,EXNAT_3_fMRI_Psychopy2023.1.3,2023.1.3,74.98277523423715,
0,0,0,0,,,,,,,,,,,#F989A2,391.9075450897217,112.13547611236572,None,None,None,678.6730895011062,text_02,142,1,1,1,Reading_Baseline_main_no_click,None,Kuba,,,,,OA03,001,no,1500,2000,126,345,424,2024-08-26_10h59.12.363,EXNAT_3_fMRI_Psychopy2023.1.3,2023.1.3,74.98277523423715,
0,0,0,0,,,,,,,,,,,#D292F3,392.60098004341125,112.8289110660553,None,None,None,749.1846787809695,text_02,143,1,1,1,Reading_Baseline_main_no_click,None,schrieb,,,,,OA03,001,no,1500,2000,126,345,424,2024-08-26_10h59.12.363,EXNAT_3_fMRI_Psychopy2023.1.3,2023.1.3,74.98277523423715,
0,0,0,0,,,,,,,,,,,#88BA3F,393.36058497428894,113.58851599693298,None,None,None,780.8502967443637,text_02,144,1,1,1,Reading_Baseline_main_no_click,None,Hemingway,,,,,OA03,001,no,1500,2000,126,345,424,2024-08-26_10h59.12.363,EXNAT_3_fMRI_Psychopy2023.1.3,2023.1.3,74.98277523423715,
0,0,0,0,,,,,,,,,,,#D292F3,394.1468880176544,114.37481904029846,None,None,None,706.7891769666967,text_02,145,1,1,1,Reading_Baseline_main_no_click,None,unter,,,,,OA03,001,no,1500,2000,126,345,424,2024-08-26_10h59.12.363,EXNAT_3_fMRI_Psychopy2023.1.3,2023.1.3,74.98277523423715,
0,0,0,0,,,,,,,,,,,#2AB7EF,394.8666479587555,115.09457898139954,None,None,None,749.1846787809695,text_02,146,1,1,1,Reading_Baseline_main_no_click,None,anderem,,,,,OA03,001,no,1500,2000,126,345,424,2024-08-26_10h59.12.363,EXNAT_3_fMRI_Psychopy2023.1.3,2023.1.3,74.98277523423715,
0,0,0,0,,,,,,,,,,,#88BA3F,395.6263689994812,115.85430002212524,None,None,None,706.7891769666967,text_02,147,1,1,1,Reading_Baseline_main_no_click,None,seine,,,,,OA03,001,no,1500,2000,126,345,424,2024-08-26_10h59.12.363,EXNAT_3_fMRI_Psychopy2023.1.3,2023.1.3,74.98277523423715,
0,0,0,0,,,,,,,,,,,#D292F3,396.3463969230652,116.57432794570923,None,None,None,766.0096342516592,text_02,148,1,1,1,Reading_Baseline_main_no_click,None,berühmte,,,,,OA03,001,no,1500,2000,126,345,424,2024-08-26_10h59.12.363,EXNAT_3_fMRI_Psychopy2023.1.3,2023.1.3,74.98277523423715,
0,0,0,0,,,,,,,,,,,#D292F3,397.11947894096375,117.34740996360779,None,None,None,749.1846787809695,text_02,149,1,1,1,Reading_Baseline_main_no_click,None,Novelle,,,,,OA03,001,no,1500,2000,126,345,424,2024-08-26_10h59.12.363,EXNAT_3_fMRI_Psychopy2023.1.3,2023.1.3,74.98277523423715,
0,0,0,0,,,,,,,,,,,#F989A2,397.8791539669037,118.10708498954773,None,None,None,678.6730895011062,text_02,150,1,1,1,Reading_Baseline_main_no_click,None,""Der,,,,,OA03,001,no,1500,2000,126,345,424,2024-08-26_10h59.12.363,EXNAT_3_fMRI_Psychopy2023.1.3,2023.1.3,74.98277523423715,
0,0,0,0,,,,,,,,,,,#2AB7EF,398.57191801071167,118.79984903335571,None,None,None,678.6730895011062,text_02,151,1,1,1,Reading_Baseline_main_no_click,None,alte,,,,,OA03,001,no,1500,2000,126,345,424,2024-08-26_10h59.12.363,EXNAT_3_fMRI_Psychopy2023.1.3,2023.1.3,74.98277523423715,
0,0,0,0,,,,,,,,,,,#F989A2,399.26511907577515,119.49305009841919,None,None,None,678.6730895011062,text_02,152,1,1,1,Reading_Baseline_main_no_click,None,Mann,,,,,OA03,001,no,1500,2000,126,345,424,2024-08-26_10h59.12.363,EXNAT_3_fMRI_Psychopy2023.1.3,2023.1.3,74.98277523423715,
0,0,0,0,,,,,,,,,,,#88BA3F,399.9580249786377,120.18595600128174,None,None,None,642.4251483721819,text_02,153,1,1,1,Reading_Baseline_main_no_click,None,und,,,,,OA03,001,no,1500,2000,126,345,424,2024-08-26_10h59.12.363,EXNAT_3_fMRI_Psychopy2023.1.3,2023.1.3,74.98277523423715,
0,0,0,0,,,,,,,,,,,#2AB7EF,400.61110401153564,120.83903503417969,None,None,None,642.4251483721819,text_02,154,1,1,1,Reading_Baseline_main_no_click,None,das,,,,,OA03,001,no,1500,2000,126,345,424,2024-08-26_10h59.12.363,EXNAT_3_fMRI_Psychopy2023.1.3,2023.1.3,74.98277523423715,
0,0,0,0,,,,,,,,,,,#D292F3,401.2646441459656,121.49257516860962,None,None,None,729.7616931227349,text_02,155,1,1,1,Reading_Baseline_main_no_click,None,Meer"".,,,,,OA03,001,no,1500,2000,126,345,424,2024-08-26_10h59.12.363,EXNAT_3_fMRI_Psychopy2023.1.3,2023.1.3,74.98277523423715,
0,0,0,0,,,,,,,,,,,#F989A2,401.99730801582336,122.22523903846741,None,None,None,642.4251483721819,text_02,156,1,1,1,Reading_Baseline_main_no_click,None,Die,,,,,OA03,001,no,1500,2000,126,345,424,2024-08-26_10h59.12.363,EXNAT_3_fMRI_Psychopy2023.1.3,2023.1.3,74.98277523423715,
0,0,0,0,,,,,,,,,,,#D292F3,402.6507999897003,122.87873101234436,None,None,None,749.1846787809695,text_02,157,1,1,1,Reading_Baseline_main_no_click,None,Novelle,,,,,OA03,001,no,1500,2000,126,345,424,2024-08-26_10h59.12.363,EXNAT_3_fMRI_Psychopy2023.1.3,2023.1.3,74.98277523423715,
0,0,0,0,,,,,,,,,,,#88BA3F,403.4105689525604,123.63849997520447,None,None,None,749.1846787809695,text_02,158,1,1,1,Reading_Baseline_main_no_click,None,handelt,,,,,OA03,001,no,1500,2000,126,345,424,2024-08-26_10h59.12.363,EXNAT_3_fMRI_Psychopy2023.1.3,2023.1.3,74.98277523423715,
0,0,0,0,,,,,,,,,,,#F989A2,404.16994404792786,124.3978750705719,None,None,None,642.4251483721819,text_02,159,1,1,1,Reading_Baseline_main_no_click,None,vom,,,,,OA03,001,no,1500,2000,126,345,424,2024-08-26_10h59.12.363,EXNAT_3_fMRI_Psychopy2023.1.3,2023.1.3,74.98277523423715,
0,0,0,0,,,,,,,,,,,#D292F3,404.8233280181885,125.05125904083252,None,None,None,706.7891769666967,text_02,160,1,1,1,Reading_Baseline_main_no_click,None,Kampf,,,,,OA03,001,no,1500,2000,126,345,424,2024-08-26_10h59.12.363,EXNAT_3_fMRI_Psychopy2023.1.3,2023.1.3,74.98277523423715,
0,0,0,0,,,,,,,,,,,#2AB7EF,405.542897939682,125.77082896232605,None,None,None,706.7891769666967,text_02,161,1,1,1,Reading_Baseline_main_no_click,None,eines,,,,,OA03,001,no,1500,2000,126,345,424,2024-08-26_10h59.12.363,EXNAT_3_fMRI_Psychopy2023.1.3,2023.1.3,74.98277523423715,
0,0,0,0,,,,,,,,,,,#F989A2,406.26259899139404,126.49053001403809,None,None,None,706.7891769666967,text_02,162,1,1,1,Reading_Baseline_main_no_click,None,alten,,,,,OA03,001,no,1500,2000,126,345,424,2024-08-26_10h59.12.363,EXNAT_3_fMRI_Psychopy2023.1.3,2023.1.3,74.98277523423715,
0,0,0,0,,,,,,,,,,,#2AB7EF,406.9826259613037,127.21055698394775,None,None,None,766.0096342516592,text_02,163,1,1,1,Reading_Baseline_main_no_click,None,Fischers,,,,,OA03,001,no,1500,2000,126,345,424,2024-08-26_10h59.12.363,EXNAT_3_fMRI_Psychopy2023.1.3,2023.1.3,74.98277523423715,
0,0,0,0,,,,,,,,,,,#D292F3,407.755490064621,127.98342108726501,None,None,None,642.4251483721819,text_02,164,1,1,1,Reading_Baseline_main_no_click,None,mit,,,,,OA03,001,no,1500,2000,126,345,424,2024-08-26_10h59.12.363,EXNAT_3_fMRI_Psychopy2023.1.3,2023.1.3,74.98277523423715,
0,0,0,0,,,,,,,,,,,#88BA3F,408.4085159301758,128.63644695281982,None,None,None,706.7891769666967,text_02,165,1,1,1,Reading_Baseline_main_no_click,None,einem,,,,,OA03,001,no,1500,2000,126,345,424,2024-08-26_10h59.12.363,EXNAT_3_fMRI_Psychopy2023.1.3,2023.1.3,74.98277523423715,
0,0,0,0,,,,,,,,,,,#F989A2,409.1286039352417,129.35653495788574,None,None,None,766.0096342516592,text_02,166,1,1,1,Reading_Baseline_main_no_click,None,riesigen,,,,,OA03,001,no,1500,2000,126,345,424,2024-08-26_10h59.12.363,EXNAT_3_fMRI_Psychopy2023.1.3,2023.1.3,74.98277523423715,
0,0,0,0,,,,,,,,,,,#2AB7EF,409.9014661312103,130.12939715385437,None,None,None,827.1836190401536,text_02,167,1,1,1,Reading_Baseline_main_no_click,None,Schwertfisch.,,,,,OA03,001,no,1500,2000,126,345,424,2024-08-26_10h59.12.363,EXNAT_3_fMRI_Psychopy2023.1.3,2023.1.3,74.98277523423715,
0,0,0,0,,,,,,,,,,,#88BA3F,410.7409040927887,130.96883511543274,None,None,None,678.6730895011062,text_02,168,1,1,1,Reading_Baseline_main_no_click,None,Zwei,,,,,OA03,001,no,1500,2000,126,345,424,2024-08-26_10h59.12.363,EXNAT_3_fMRI_Psychopy2023.1.3,2023.1.3,74.98277523423715,
0,0,0,0,,,,,,,,,,,#2AB7EF,411.4339830875397,131.66191411018372,None,None,None,678.6730895011062,text_02,169,1,1,1,Reading_Baseline_main_no_click,None,Tage,,,,,OA03,001,no,1500,2000,126,345,424,2024-08-26_10h59.12.363,EXNAT_3_fMRI_Psychopy2023.1.3,2023.1.3,74.98277523423715,
0,0,0,0,,,,,,,,,,,#88BA3F,412.12706899642944,132.3550000190735,None,None,None,642.4251483721819,text_02,170,1,1,1,Reading_Baseline_main_no_click,None,und,,,,,OA03,001,no,1500,2000,126,345,424,2024-08-26_10h59.12.363,EXNAT_3_fMRI_Psychopy2023.1.3,2023.1.3,74.98277523423715,
0,0,0,0,,,,,,,,,,,#2AB7EF,412.7802879810333,133.00821900367737,None,None,None,678.6730895011062,text_02,171,1,1,1,Reading_Baseline_main_no_click,None,zwei,,,,,OA03,001,no,1500,2000,126,345,424,2024-08-26_10h59.12.363,EXNAT_3_fMRI_Psychopy2023.1.3,2023.1.3,74.98277523423715,
0,0,0,0,,,,,,,,,,,#F989A2,413.47361993789673,133.70155096054077,None,None,None,729.7616931227349,text_02,172,1,1,1,Reading_Baseline_main_no_click,None,Nächte,,,,,OA03,001,no,1500,2000,126,345,424,2024-08-26_10h59.12.363,EXNAT_3_fMRI_Psychopy2023.1.3,2023.1.3,74.98277523423715,
0,0,0,0,,,,,,,,,,,#F989A2,414.2064960002899,134.43442702293396,None,None,None,706.7891769666967,text_02,173,1,1,1,Reading_Baseline_main_no_click,None,ringt,,,,,OA03,001,no,1500,2000,126,345,424,2024-08-26_10h59.12.363,EXNAT_3_fMRI_Psychopy2023.1.3,2023.1.3,74.98277523423715,
0,0,0,0,,,,,,,,,,,#88BA3F,414.9261989593506,135.15412998199463,None,None,None,642.4251483721819,text_02,174,1,1,1,Reading_Baseline_main_no_click,None,der,,,,,OA03,001,no,1500,2000,126,345,424,2024-08-26_10h59.12.363,EXNAT_3_fMRI_Psychopy2023.1.3,2023.1.3,74.98277523423715,
0,0,0,0,,,,,,,,,,,#88BA3F,415.57993507385254,135.80786609649658,None,None,None,749.1846787809695,text_02,175,1,1,1,Reading_Baseline_main_no_click,None,Fischer,,,,,OA03,001,no,1500,2000,126,345,424,2024-08-26_10h59.12.363,EXNAT_3_fMRI_Psychopy2023.1.3,2023.1.3,74.98277523423715,
0,0,0,0,,,,,,,,,,,#D292F3,416.3391320705414,136.56706309318542,None,None,None,642.4251483721819,text_02,176,1,1,1,Reading_Baseline_main_no_click,None,mit,,,,,OA03,001,no,1500,2000,126,345,424,2024-08-26_10h59.12.363,EXNAT_3_fMRI_Psychopy2023.1.3,2023.1.3,74.98277523423715,
0,0,0,0,,,,,,,,,,,#F989A2,416.99223613739014,137.22016716003418,None,None,None,642.4251483721819,text_02,177,1,1,1,Reading_Baseline_main_no_click,None,dem,,,,,OA03,001,no,1500,2000,126,345,424,2024-08-26_10h59.12.363,EXNAT_3_fMRI_Psychopy2023.1.3,2023.1.3,74.98277523423715,
0,0,0,0,,,,,,,,,,,#D292F3,417.6454710960388,137.87340211868286,None,None,None,827.1836190401536,text_02,178,1,1,1,Reading_Baseline_main_no_click,None,"Schwertfisch,",,,,,OA03,001,no,1500,2000,126,345,424,2024-08-26_10h59.12.363,EXNAT_3_fMRI_Psychopy2023.1.3,2023.1.3,74.98277523423715,
0,0,0,0,,,,,,,,,,,#2AB7EF,418.48486495018005,138.7127959728241,None,None,None,642.4251483721819,text_02,179,1,1,1,Reading_Baseline_main_no_click,None,bis,,,,,OA03,001,no,1500,2000,126,345,424,2024-08-26_10h59.12.363,EXNAT_3_fMRI_Psychopy2023.1.3,2023.1.3,74.98277523423715,
0,0,0,0,,,,,,,,,,,#D292F3,419.1379089355469,139.36583995819092,None,None,None,630.0,text_02,180,1,1,1,Reading_Baseline_main_no_click,None,er,,,,,OA03,001,no,1500,2000,126,345,424,2024-08-26_10h59.12.363,EXNAT_3_fMRI_Psychopy2023.1.3,2023.1.3,74.98277523423715,
0,0,0,0,,,,,,,,,,,#88BA3F,419.777841091156,140.00577211380005,None,None,None,642.4251483721819,text_02,181,1,1,1,Reading_Baseline_main_no_click,None,ihn,,,,,OA03,001,no,1500,2000,126,345,424,2024-08-26_10h59.12.363,EXNAT_3_fMRI_Psychopy2023.1.3,2023.1.3,74.98277523423715,
0,0,0,0,,,,,,,,,,,#2AB7EF,420.431440114975,140.65937113761902,None,None,None,806.1348043725948,text_02,182,1,1,1,Reading_Baseline_main_no_click,None,schließlich,,,,,OA03,001,no,1500,2000,126,345,424,2024-08-26_10h59.12.363,EXNAT_3_fMRI_Psychopy2023.1.3,2023.1.3,74.98277523423715,
0,0,0,0,,,,,,,,,,,#D292F3,421.24388098716736,141.4718120098114,None,None,None,630.0,text_02,183,1,1,1,Reading_Baseline_main_no_click,None,am,,,,,OA03,001,no,1500,2000,126,345,424,2024-08-26_10h59.12.363,EXNAT_3_fMRI_Psychopy2023.1.3,2023.1.3,74.98277523423715,
0,0,0,0,,,,,,,,,,,#88BA3F,421.8840579986572,142.11198902130127,None,None,None,749.1846787809695,text_02,184,1,1,1,Reading_Baseline_main_no_click,None,dritten,,,,,OA03,001,no,1500,2000,126,345,424,2024-08-26_10h59.12.363,EXNAT_3_fMRI_Psychopy2023.1.3,2023.1.3,74.98277523423715,
0,0,0,0,,,,,,,,,,,#F989A2,422.6435661315918,142.87149715423584,None,None,None,642.4251483721819,text_02,185,1,1,1,Reading_Baseline_main_no_click,None,Tag,,,,,OA03,001,no,1500,2000,126,345,424,2024-08-26_10h59.12.363,EXNAT_3_fMRI_Psychopy2023.1.3,2023.1.3,74.98277523423715,
0,0,0,0,,,,,,,,,,,#88BA3F,423.29705715179443,143.52498817443848,None,None,None,817.0982378732881,text_02,186,1,1,1,Reading_Baseline_main_no_click,None,überwältigen,,,,,OA03,001,no,1500,2000,126,345,424,2024-08-26_10h59.12.363,EXNAT_3_fMRI_Psychopy2023.1.3,2023.1.3,74.98277523423715,
0,0,0,0,,,,,,,,,,,#D292F3,424.1232340335846,144.35116505622864,None,None,None,706.7891769666967,text_02,187,1,1,1,Reading_Baseline_main_no_click,None,kann.,,,,,OA03,001,no,1500,2000,126,345,424,2024-08-26_10h59.12.363,EXNAT_3_fMRI_Psychopy2023.1.3,2023.1.3,74.98277523423715,
0,0,0,0,,,,,,,,,,,#2AB7EF,424.84259605407715,145.0705270767212,None,None,None,630.0,text_02,188,1,1,1,Reading_Baseline_main_no_click,None,Da,,,,,OA03,001,no,1500,2000,126,345,424,2024-08-26_10h59.12.363,EXNAT_3_fMRI_Psychopy2023.1.3,2023.1.3,74.98277523423715,
0,0,0,0,,,,,,,,,,,#D292F3,425.48240303993225,145.7103340625763,None,None,None,642.4251483721819,text_02,189,1,1,1,Reading_Baseline_main_no_click,None,der,,,,,OA03,001,no,1500,2000,126,345,424,2024-08-26_10h59.12.363,EXNAT_3_fMRI_Psychopy2023.1.3,2023.1.3,74.98277523423715,
0,0,0,0,,,,,,,,,,,#F989A2,426.1358389854431,146.36377000808716,None,None,None,706.7891769666967,text_02,190,1,1,1,Reading_Baseline_main_no_click,None,Fisch,,,,,OA03,001,no,1500,2000,126,345,424,2024-08-26_10h59.12.363,EXNAT_3_fMRI_Psychopy2023.1.3,2023.1.3,74.98277523423715,
0,0,0,0,,,,,,,,,,,#2AB7EF,426.85521602630615,147.0831470489502,None,None,None,630.0,text_02,191,1,1,1,Reading_Baseline_main_no_click,None,zu,,,,,OA03,001,no,1500,2000,126,345,424,2024-08-26_10h59.12.363,EXNAT_3_fMRI_Psychopy2023.1.3,2023.1.3,74.98277523423715,
0,0,0,0,,,,,,,,,,,#F989A2,427.4954640865326,147.72339510917664,None,None,None,678.6730895011062,text_02,192,1,1,1,Reading_Baseline_main_no_click,None,groß,,,,,OA03,001,no,1500,2000,126,345,424,2024-08-26_10h59.12.363,EXNAT_3_fMRI_Psychopy2023.1.3,2023.1.3,74.98277523423715,
0,0,0,0,,,,,,,,,,,#2AB7EF,428.1881139278412,148.41604495048523,None,None,None,678.6730895011062,text_02,193,1,1,1,Reading_Baseline_main_no_click,None,"ist,",,,,,OA03,001,no,1500,2000,126,345,424,2024-08-26_10h59.12.363,EXNAT_3_fMRI_Psychopy2023.1.3,2023.1.3,74.98277523423715,
0,0,0,0,,,,,,,,,,,#D292F3,428.8811631202698,149.10909414291382,None,None,None,630.0,text_02,194,1,1,1,Reading_Baseline_main_no_click,None,um,,,,,OA03,001,no,1500,2000,126,345,424,2024-08-26_10h59.12.363,EXNAT_3_fMRI_Psychopy2023.1.3,2023.1.3,74.98277523423715,
0,0,0,0,,,,,,,,,,,#88BA3F,429.52109599113464,149.7490270137787,None,None,None,642.4251483721819,text_02,195,1,1,1,Reading_Baseline_main_no_click,None,ihn,,,,,OA03,001,no,1500,2000,126,345,424,2024-08-26_10h59.12.363,EXNAT_3_fMRI_Psychopy2023.1.3,2023.1.3,74.98277523423715,
0,0,0,0,,,,,,,,,,,#F989A2,430.1741750240326,150.40210604667664,None,None,None,642.4251483721819,text_02,196,1,1,1,Reading_Baseline_main_no_click,None,ins,,,,,OA03,001,no,1500,2000,126,345,424,2024-08-26_10h59.12.363,EXNAT_3_fMRI_Psychopy2023.1.3,2023.1.3,74.98277523423715,
0,0,0,0,,,,,,,,,,,#2AB7EF,430.8273169994354,151.05524802207947,None,None,None,678.6730895011062,text_02,197,1,1,1,Reading_Baseline_main_no_click,None,Boot,,,,,OA03,001,no,1500,2000,126,345,424,2024-08-26_10h59.12.363,EXNAT_3_fMRI_Psychopy2023.1.3,2023.1.3,74.98277523423715,
0,0,0,0,,,,,,,,,,,#2AB7EF,431.5201699733734,151.74810099601746,None,None,None,630.0,text_02,198,1,1,1,Reading_Baseline_main_no_click,None,zu,,,,,OA03,001,no,1500,2000,126,345,424,2024-08-26_10h59.12.363,EXNAT_3_fMRI_Psychopy2023.1.3,2023.1.3,74.98277523423715,
0,0,0,0,,,,,,,,,,,#D292F3,432.1601560115814,152.38808703422546,None,None,None,749.1846787809695,text_02,199,1,1,1,Reading_Baseline_main_no_click,None,"ziehen,",,,,,OA03,001,no,1500,2000,126,345,424,2024-08-26_10h59.12.363,EXNAT_3_fMRI_Psychopy2023.1.3,2023.1.3,74.98277523423715,
0,0,0,0,,,,,,,,,,,#F989A2,432.91998314857483,153.14791417121887,None,None,None,729.7616931227349,text_02,200,1,1,1,Reading_Baseline_main_no_click,None,bindet,,,,,OA03,001,no,1500,2000,126,345,424,2024-08-26_10h59.12.363,EXNAT_3_fMRI_Psychopy2023.1.3,2023.1.3,74.98277523423715,
0,0,0,0,,,,,,,,,,,#2AB7EF,433.65306210517883,153.88099312782288,None,None,None,630.0,text_02,201,1,1,1,Reading_Baseline_main_no_click,None,er,,,,,OA03,001,no,1500,2000,126,345,424,2024-08-26_10h59.12.363,EXNAT_3_fMRI_Psychopy2023.1.3,2023.1.3,74.98277523423715,
0,0,0,0,,,,,,,,,,,#D292F3,434.29259991645813,154.52053093910217,None,None,None,642.4251483721819,text_02,202,1,1,1,Reading_Baseline_main_no_click,None,ihn,,,,,OA03,001,no,1500,2000,126,345,424,2024-08-26_10h59.12.363,EXNAT_3_fMRI_Psychopy2023.1.3,2023.1.3,74.98277523423715,
0,0,0,0,,,,,,,,,,,#88BA3F,434.9457471370697,155.17367815971375,None,None,None,642.4251483721819,text_02,203,1,1,1,Reading_Baseline_main_no_click,None,von,,,,,OA03,001,no,1500,2000,126,345,424,2024-08-26_10h59.12.363,EXNAT_3_fMRI_Psychopy2023.1.3,2023.1.3,74.98277523423715,
0,0,0,0,,,,,,,,,,,#88BA3F,435.5992760658264,155.82720708847046,None,None,None,706.7891769666967,text_02,204,1,1,1,Reading_Baseline_main_no_click,None,außen,,,,,OA03,001,no,1500,2000,126,345,424,2024-08-26_10h59.12.363,EXNAT_3_fMRI_Psychopy2023.1.3,2023.1.3,74.98277523423715,
0,0,0,0,,,,,,,,,,,#D292F3,436.3185670375824,156.54649806022644,None,None,None,642.4251483721819,text_02,205,1,1,1,Reading_Baseline_main_no_click,None,ans,,,,,OA03,001,no,1500,2000,126,345,424,2024-08-26_10h59.12.363,EXNAT_3_fMRI_Psychopy2023.1.3,2023.1.3,74.98277523423715,
0,0,0,0,,,,,,,,,,,#F989A2,436.97193002700806,157.1998610496521,None,None,None,706.7891769666967,text_02,206,1,1,1,Reading_Baseline_main_no_click,None,Boot.,,,,,OA03,001,no,1500,2000,126,345,424,2024-08-26_10h59.12.363,EXNAT_3_fMRI_Psychopy2023.1.3,2023.1.3,74.98277523423715,
0,0,0,0,,,,,,,,,,,#88BA3F,437.69143509864807,157.91936612129211,None,None,None,642.4251483721819,text_02,207,1,1,1,Reading_Baseline_main_no_click,None,Das,,,,,OA03,001,no,1500,2000,126,345,424,2024-08-26_10h59.12.363,EXNAT_3_fMRI_Psychopy2023.1.3,2023.1.3,74.98277523423715,
0,0,0,0,,,,,,,,,,,#F989A2,438.3447070121765,158.57263803482056,None,None,None,678.6730895011062,text_02,208,1,1,1,Reading_Baseline_main_no_click,None,Blut,,,,,OA03,001,no,1500,2000,126,345,424,2024-08-26_10h59.12.363,EXNAT_3_fMRI_Psychopy2023.1.3,2023.1.3,74.98277523423715,
0,0,0,0,,,,,,,,,,,#2AB7EF,439.0378119945526,159.26574301719666,None,None,None,642.4251483721819,text_02,209,1,1,1,Reading_Baseline_main_no_click,None,des,,,,,OA03,001,no,1500,2000,126,345,424,2024-08-26_10h59.12.363,EXNAT_3_fMRI_Psychopy2023.1.3,2023.1.3,74.98277523423715,
0,0,0,0,,,,,,,,,,,#88BA3F,439.6910240650177,159.91895508766174,None,None,None,836.5212235315225,text_02,210,1,1,1,Reading_Baseline_main_no_click,None,Schwertfisches,,,,,OA03,001,no,1500,2000,126,345,424,2024-08-26_10h59.12.363,EXNAT_3_fMRI_Psychopy2023.1.3,2023.1.3,74.98277523423715,
0,0,0,0,,,,,,,,,,,#2AB7EF,440.53074502944946,160.7586760520935,None,None,None,706.7891769666967,text_02,211,1,1,1,Reading_Baseline_main_no_click,None,lockt,,,,,OA03,001,no,1500,2000,126,345,424,2024-08-26_10h59.12.363,EXNAT_3_fMRI_Psychopy2023.1.3,2023.1.3,74.98277523423715,
0,0,0,0,,,,,,,,,,,#F989A2,441.2501709461212,161.47810196876526,None,None,None,642.4251483721819,text_02,212,1,1,1,Reading_Baseline_main_no_click,None,auf,,,,,OA03,001,no,1500,2000,126,345,424,2024-08-26_10h59.12.363,EXNAT_3_fMRI_Psychopy2023.1.3,2023.1.3,74.98277523423715,
0,0,0,0,,,,,,,,,,,#D292F3,441.9032220840454,162.13115310668945,None,None,None,642.4251483721819,text_02,213,1,1,1,Reading_Baseline_main_no_click,None,der,,,,,OA03,001,no,1500,2000,126,345,424,2024-08-26_10h59.12.363,EXNAT_3_fMRI_Psychopy2023.1.3,2023.1.3,74.98277523423715,
0,0,0,0,,,,,,,,,,,#2AB7EF,442.5565769672394,162.78450798988342,None,None,None,780.8502967443637,text_02,214,1,1,1,Reading_Baseline_main_no_click,None,Heimfahrt,,,,,OA03,001,no,1500,2000,126,345,424,2024-08-26_10h59.12.363,EXNAT_3_fMRI_Psychopy2023.1.3,2023.1.3,74.98277523423715,
0,0,0,0,,,,,,,,,,,#D292F3,443.34348011016846,163.5714111328125,None,None,None,729.7616931227349,text_02,215,1,1,1,Reading_Baseline_main_no_click,None,jedoch,,,,,OA03,001,no,1500,2000,126,345,424,2024-08-26_10h59.12.363,EXNAT_3_fMRI_Psychopy2023.1.3,2023.1.3,74.98277523423715,
0,0,0,0,,,,,,,,,,,#88BA3F,444.075875043869,164.30380606651306,None,None,None,678.6730895011062,text_02,216,1,1,1,Reading_Baseline_main_no_click,None,Haie,,,,,OA03,001,no,1500,2000,126,345,424,2024-08-26_10h59.12.363,EXNAT_3_fMRI_Psychopy2023.1.3,2023.1.3,74.98277523423715,
0,0,0,0,,,,,,,,,,,#2AB7EF,444.7691740989685,164.99710512161255,None,None,None,642.4251483721819,text_02,217,1,1,1,Reading_Baseline_main_no_click,None,an.,,,,,OA03,001,no,1500,2000,126,345,424,2024-08-26_10h59.12.363,EXNAT_3_fMRI_Psychopy2023.1.3,2023.1.3,74.98277523423715,
0,0,0,0,,,,,,,,,,,#F989A2,445.42233896255493,165.65026998519897,None,None,None,642.4251483721819,text_02,218,1,1,1,Reading_Baseline_main_no_click,None,Die,,,,,OA03,001,no,1500,2000,126,345,424,2024-08-26_10h59.12.363,EXNAT_3_fMRI_Psychopy2023.1.3,2023.1.3,74.98277523423715,
0,0,0,0,,,,,,,,,,,#F989A2,446.0754520893097,166.30338311195374,None,None,None,678.6730895011062,text_02,219,1,1,1,Reading_Baseline_main_no_click,None,Haie,,,,,OA03,001,no,1500,2000,126,345,424,2024-08-26_10h59.12.363,EXNAT_3_fMRI_Psychopy2023.1.3,2023.1.3,74.98277523423715,
0,0,0,0,,,,,,,,,,,#2AB7EF,446.7684540748596,166.99638509750366,None,None,None,749.1846787809695,text_02,220,1,1,1,Reading_Baseline_main_no_click,None,fressen,,,,,OA03,001,no,1500,2000,126,345,424,2024-08-26_10h59.12.363,EXNAT_3_fMRI_Psychopy2023.1.3,2023.1.3,74.98277523423715,
0,0,0,0,,,,,,,,,,,#D292F3,447.52829098701477,167.7562220096588,None,None,None,678.6730895011062,text_02,221,1,1,1,Reading_Baseline_main_no_click,None,nach,,,,,OA03,001,no,1500,2000,126,345,424,2024-08-26_10h59.12.363,EXNAT_3_fMRI_Psychopy2023.1.3,2023.1.3,74.98277523423715,
0,0,0,0,,,,,,,,,,,#F989A2,448.2212700843811,168.44920110702515,None,None,None,642.4251483721819,text_02,222,1,1,1,Reading_Baseline_main_no_click,None,und,,,,,OA03,001,no,1500,2000,126,345,424,2024-08-26_10h59.12.363,EXNAT_3_fMRI_Psychopy2023.1.3,2023.1.3,74.98277523423715,
0,0,0,0,,,,,,,,,,,#88BA3F,448.87416195869446,169.1020929813385,None,None,None,678.6730895011062,text_02,223,1,1,1,Reading_Baseline_main_no_click,None,nach,,,,,OA03,001,no,1500,2000,126,345,424,2024-08-26_10h59.12.363,EXNAT_3_fMRI_Psychopy2023.1.3,2023.1.3,74.98277523423715,
0,0,0,0,,,,,,,,,,,#D292F3,449.5676980018616,169.79562902450562,None,None,None,706.7891769666967,text_02,224,1,1,1,Reading_Baseline_main_no_click,None,Teile,,,,,OA03,001,no,1500,2000,126,345,424,2024-08-26_10h59.12.363,EXNAT_3_fMRI_Psychopy2023.1.3,2023.1.3,74.98277523423715,
0,0,0,0,,,,,,,,,,,#2AB7EF,450.28740906715393,170.51534008979797,None,None,None,642.4251483721819,text_02,225,1,1,1,Reading_Baseline_main_no_click,None,des,,,,,OA03,001,no,1500,2000,126,345,424,2024-08-26_10h59.12.363,EXNAT_3_fMRI_Psychopy2023.1.3,2023.1.3,74.98277523423715,
0,0,0,0,,,,,,,,,,,#D292F3,450.94045901298523,171.16839003562927,None,None,None,836.5212235315225,text_02,226,1,1,1,Reading_Baseline_main_no_click,None,"Schwertfischs,",,,,,OA03,001,no,1500,2000,126,345,424,2024-08-26_10h59.12.363,EXNAT_3_fMRI_Psychopy2023.1.3,2023.1.3,74.98277523423715,
0,0,0,0,,,,,,,,,,,#88BA3F,451.7802290916443,172.00816011428833,None,None,None,729.7616931227349,text_02,227,1,1,1,Reading_Baseline_main_no_click,None,sodass,,,,,OA03,001,no,1500,2000,126,345,424,2024-08-26_10h59.12.363,EXNAT_3_fMRI_Psychopy2023.1.3,2023.1.3,74.98277523423715,
0,0,0,0,,,,,,,,,,,#88BA3F,452.5130331516266,172.74096417427063,None,None,None,642.4251483721819,text_02,228,1,1,1,Reading_Baseline_main_no_click,None,dem,,,,,OA03,001,no,1500,2000,126,345,424,2024-08-26_10h59.12.363,EXNAT_3_fMRI_Psychopy2023.1.3,2023.1.3,74.98277523423715,
0,0,0,0,,,,,,,,,,,#D292F3,453.16637802124023,173.39430904388428,None,None,None,749.1846787809695,text_02,229,1,1,1,Reading_Baseline_main_no_click,None,Fischer,,,,,OA03,001,no,1500,2000,126,345,424,2024-08-26_10h59.12.363,EXNAT_3_fMRI_Psychopy2023.1.3,2023.1.3,74.98277523423715,
0,0,0,0,,,,,,,,,,,#88BA3F,453.92568492889404,174.1536159515381,None,None,None,642.4251483721819,text_02,230,1,1,1,Reading_Baseline_main_no_click,None,nur,,,,,OA03,001,no,1500,2000,126,345,424,2024-08-26_10h59.12.363,EXNAT_3_fMRI_Psychopy2023.1.3,2023.1.3,74.98277523423715,
0,0,0,0,,,,,,,,,,,#D292F3,454.57878708839417,174.8067181110382,None,None,None,642.4251483721819,text_02,231,1,1,1,Reading_Baseline_main_no_click,None,das,,,,,OA03,001,no,1500,2000,126,345,424,2024-08-26_10h59.12.363,EXNAT_3_fMRI_Psychopy2023.1.3,2023.1.3,74.98277523423715,
0,0,0,0,,,,,,,,,,,#2AB7EF,455.2323679924011,175.46029901504517,None,None,None,749.1846787809695,text_02,232,1,1,1,Reading_Baseline_main_no_click,None,Skelett,,,,,OA03,001,no,1500,2000,126,345,424,2024-08-26_10h59.12.363,EXNAT_3_fMRI_Psychopy2023.1.3,2023.1.3,74.98277523423715,
0,0,0,0,,,,,,,,,,,#F989A2,455.9920060634613,176.21993708610535,None,None,None,749.1846787809695,text_02,233,1,1,1,Reading_Baseline_main_no_click,None,"bleibt,",,,,,OA03,001,no,1500,2000,126,345,424,2024-08-26_10h59.12.363,EXNAT_3_fMRI_Psychopy2023.1.3,2023.1.3,74.98277523423715,
0,0,0,0,,,,,,,,,,,#D292F3,456.7513689994812,176.97930002212524,None,None,None,642.4251483721819,text_02,234,1,1,1,Reading_Baseline_main_no_click,None,als,,,,,OA03,001,no,1500,2000,126,345,424,2024-08-26_10h59.12.363,EXNAT_3_fMRI_Psychopy2023.1.3,2023.1.3,74.98277523423715,
0,0,0,0,,,,,,,,,,,#88BA3F,457.40491700172424,177.6328480243683,None,None,None,630.0,text_02,235,1,1,1,Reading_Baseline_main_no_click,None,er,,,,,OA03,001,no,1500,2000,126,345,424,2024-08-26_10h59.12.363,EXNAT_3_fMRI_Psychopy2023.1.3,2023.1.3,74.98277523423715,
0,0,0,0,,,,,,,,,,,#2AB7EF,458.04481506347656,178.2727460861206,None,None,None,729.7616931227349,text_02,236,1,1,1,Reading_Baseline_main_no_click,None,wieder,,,,,OA03,001,no,1500,2000,126,345,424,2024-08-26_10h59.12.363,EXNAT_3_fMRI_Psychopy2023.1.3,2023.1.3,74.98277523423715,
0,0,0,0,,,,,,,,,,,#F989A2,458.7773599624634,179.00529098510742,None,None,None,630.0,text_02,237,1,1,1,Reading_Baseline_main_no_click,None,in,,,,,OA03,001,no,1500,2000,126,345,424,2024-08-26_10h59.12.363,EXNAT_3_fMRI_Psychopy2023.1.3,2023.1.3,74.98277523423715,
0,0,0,0,,,,,,,,,,,#2AB7EF,459.41716599464417,179.6450970172882,None,None,None,642.4251483721819,text_02,238,1,1,1,Reading_Baseline_main_no_click,None,den,,,,,OA03,001,no,1500,2000,126,345,424,2024-08-26_10h59.12.363,EXNAT_3_fMRI_Psychopy2023.1.3,2023.1.3,74.98277523423715,
0,0,0,0,,,,,,,,,,,#88BA3F,460.07065296173096,180.298583984375,None,None,None,806.1348043725948,text_02,239,1,1,1,Reading_Baseline_main_no_click,None,Heimathafen,,,,,OA03,001,no,1500,2000,126,345,424,2024-08-26_10h59.12.363,EXNAT_3_fMRI_Psychopy2023.1.3,2023.1.3,74.98277523423715,
0,0,0,0,,,,,,,,,,,#F989A2,460.8838860988617,181.11181712150574,None,None,None,817.0982378732881,text_02,240,1,1,1,Reading_Baseline_main_no_click,None,zurückkehrt.,,,,,OA03,001,no,1500,2000,126,345,424,2024-08-26_10h59.12.363,EXNAT_3_fMRI_Psychopy2023.1.3,2023.1.3,74.98277523423715,
0,0,0,0,,,,,,,,,,,#D292F3,461.7096860408783,181.93761706352234,None,None,None,642.4251483721819,text_02,241,1,1,1,Reading_Baseline_main_no_click,None,Die,,,,,OA03,001,no,1500,2000,126,345,424,2024-08-26_10h59.12.363,EXNAT_3_fMRI_Psychopy2023.1.3,2023.1.3,74.98277523423715,
0,0,0,0,,,,,,,,,,,#88BA3F,462.36302304267883,182.59095406532288,None,None,None,706.7891769666967,text_02,242,1,1,1,Reading_Baseline_main_no_click,None,Figur,,,,,OA03,001,no,1500,2000,126,345,424,2024-08-26_10h59.12.363,EXNAT_3_fMRI_Psychopy2023.1.3,2023.1.3,74.98277523423715,
0,0,0,0,,,,,,,,,,,#F989A2,463.0829999446869,183.31093096733093,None,None,None,642.4251483721819,text_02,243,1,1,1,Reading_Baseline_main_no_click,None,des,,,,,OA03,001,no,1500,2000,126,345,424,2024-08-26_10h59.12.363,EXNAT_3_fMRI_Psychopy2023.1.3,2023.1.3,74.98277523423715,
0,0,0,0,,,,,,,,,,,#2AB7EF,463.7361829280853,183.96411395072937,None,None,None,766.0096342516592,text_02,244,1,1,1,Reading_Baseline_main_no_click,None,Fischers,,,,,OA03,001,no,1500,2000,126,345,424,2024-08-26_10h59.12.363,EXNAT_3_fMRI_Psychopy2023.1.3,2023.1.3,74.98277523423715,
0,0,0,0,,,,,,,,,,,#88BA3F,464.5087890625,184.73672008514404,None,None,None,642.4251483721819,text_02,245,1,1,1,Reading_Baseline_main_no_click,None,ist,,,,,OA03,001,no,1500,2000,126,345,424,2024-08-26_10h59.12.363,EXNAT_3_fMRI_Psychopy2023.1.3,2023.1.3,74.98277523423715,
0,0,0,0,,,,,,,,,,,#2AB7EF,465.1621789932251,185.39011001586914,None,None,None,794.1257217172498,text_02,246,1,1,1,Reading_Baseline_main_no_click,None,vermutlich,,,,,OA03,001,no,1500,2000,126,345,424,2024-08-26_10h59.12.363,EXNAT_3_fMRI_Psychopy2023.1.3,2023.1.3,74.98277523423715,
0,0,0,0,,,,,,,,,,,#88BA3F,465.9619400501251,186.18987107276917,None,None,None,780.8502967443637,text_02,247,1,1,1,Reading_Baseline_main_no_click,None,angelehnt,,,,,OA03,001,no,1500,2000,126,345,424,2024-08-26_10h59.12.363,EXNAT_3_fMRI_Psychopy2023.1.3,2023.1.3,74.98277523423715,
0,0,0,0,,,,,,,,,,,#F989A2,466.74797201156616,186.9759030342102,None,None,None,630.0,text_02,248,1,1,1,Reading_Baseline_main_no_click,None,an,,,,,OA03,001,no,1500,2000,126,345,424,2024-08-26_10h59.12.363,EXNAT_3_fMRI_Psychopy2023.1.3,2023.1.3,74.98277523423715,
0,0,0,0,,,,,,,,,,,#D292F3,467.3877830505371,187.61571407318115,None,None,None,642.4251483721819,text_02,249,1,1,1,Reading_Baseline_main_no_click,None,den,,,,,OA03,001,no,1500,2000,126,345,424,2024-08-26_10h59.12.363,EXNAT_3_fMRI_Psychopy2023.1.3,2023.1.3,74.98277523423715,
0,0,0,0,,,,,,,,,,,#D292F3,468.0413501262665,188.26928114891052,None,None,None,749.1846787809695,text_02,250,1,1,1,Reading_Baseline_main_no_click,None,Fischer,,,,,OA03,001,no,1500,2000,126,345,424,2024-08-26_10h59.12.363,EXNAT_3_fMRI_Psychopy2023.1.3,2023.1.3,74.98277523423715,
0,0,0,0,,,,,,,,,,,#2AB7EF,468.8010220527649,189.02895307540894,None,None,None,766.0096342516592,text_02,251,1,1,1,Reading_Baseline_main_no_click,None,Gregorio,,,,,OA03,001,no,1500,2000,126,345,424,2024-08-26_10h59.12.363,EXNAT_3_fMRI_Psychopy2023.1.3,2023.1.3,74.98277523423715,
0,0,0,0,,,,,,,,,,,#F989A2,469.57384395599365,189.8017749786377,None,None,None,766.0096342516592,text_02,252,1,1,1,Reading_Baseline_main_no_click,None,"Fuentes,",,,,,OA03,001,no,1500,2000,126,345,424,2024-08-26_10h59.12.363,EXNAT_3_fMRI_Psychopy2023.1.3,2023.1.3,74.98277523423715,
0,0,0,0,,,,,,,,,,,#2AB7EF,470.3465440273285,190.57447504997253,None,None,None,642.4251483721819,text_02,253,1,1,1,Reading_Baseline_main_no_click,None,der,,,,,OA03,001,no,1500,2000,126,345,424,2024-08-26_10h59.12.363,EXNAT_3_fMRI_Psychopy2023.1.3,2023.1.3,74.98277523423715,
0,0,0,0,,,,,,,,,,,#D292F3,470.99965596199036,191.2275869846344,None,None,None,678.6730895011062,text_02,254,1,1,1,Reading_Baseline_main_no_click,None,sich,,,,,OA03,001,no,1500,2000,126,345,424,2024-08-26_10h59.12.363,EXNAT_3_fMRI_Psychopy2023.1.3,2023.1.3,74.98277523423715,
0,0,0,0,,,,,,,,,,,#F989A2,471.69291400909424,191.92084503173828,None,None,None,642.4251483721819,text_02,255,1,1,1,Reading_Baseline_main_no_click,None,auf,,,,,OA03,001,no,1500,2000,126,345,424,2024-08-26_10h59.12.363,EXNAT_3_fMRI_Psychopy2023.1.3,2023.1.3,74.98277523423715,
0,0,0,0,,,,,,,,,,,#88BA3F,472.3461000919342,192.57403111457825,None,None,None,678.6730895011062,text_02,256,1,1,1,Reading_Baseline_main_no_click,None,Kuba,,,,,OA03,001,no,1500,2000,126,345,424,2024-08-26_10h59.12.363,EXNAT_3_fMRI_Psychopy2023.1.3,2023.1.3,74.98277523423715,
0,0,0,0,,,,,,,,,,,#2AB7EF,473.03907895088196,193.267009973526,None,None,None,630.0,text_02,257,1,1,1,Reading_Baseline_main_no_click,None,um,,,,,OA03,001,no,1500,2000,126,345,424,2024-08-26_10h59.12.363,EXNAT_3_fMRI_Psychopy2023.1.3,2023.1.3,74.98277523423715,
0,0,0,0,,,,,,,,,,,#2AB7EF,473.6792299747467,193.90716099739075,None,None,None,794.1257217172498,text_02,258,1,1,1,Reading_Baseline_main_no_click,None,Hemingways,,,,,OA03,001,no,1500,2000,126,345,424,2024-08-26_10h59.12.363,EXNAT_3_fMRI_Psychopy2023.1.3,2023.1.3,74.98277523423715,
0,0,0,0,,,,,,,,,,,#D292F3,474.478816986084,194.70674800872803,None,None,None,678.6730895011062,text_02,259,1,1,1,Reading_Baseline_main_no_click,None,Boot,,,,,OA03,001,no,1500,2000,126,345,424,2024-08-26_10h59.12.363,EXNAT_3_fMRI_Psychopy2023.1.3,2023.1.3,74.98277523423715,
0,0,0,0,,,,,,,,,,,#2AB7EF,475.17232608795166,195.4002571105957,None,None,None,780.8502967443637,text_02,260,1,1,1,Reading_Baseline_main_no_click,None,kümmerte.,,,,,OA03,001,no,1500,2000,126,345,424,2024-08-26_10h59.12.363,EXNAT_3_fMRI_Psychopy2023.1.3,2023.1.3,74.98277523423715,
0,0,0,0,,,,,,,,,,,#D292F3,475.9583261013031,196.18625712394714,None,None,None,642.4251483721819,text_02,261,1,1,1,Reading_Baseline_main_no_click,None,Für,,,,,OA03,001,no,1500,2000,126,345,424,2024-08-26_10h59.12.363,EXNAT_3_fMRI_Psychopy2023.1.3,2023.1.3,74.98277523423715,
0,0,0,0,,,,,,,,,,,#F989A2,476.61113810539246,196.8390691280365,None,None,None,678.6730895011062,text_02,262,1,1,1,Reading_Baseline_main_no_click,None,sein,,,,,OA03,001,no,1500,2000,126,345,424,2024-08-26_10h59.12.363,EXNAT_3_fMRI_Psychopy2023.1.3,2023.1.3,74.98277523423715,
0,0,0,0,,,,,,,,,,,#2AB7EF,477.305321931839,197.53325295448303,None,None,None,678.6730895011062,text_02,263,1,1,1,Reading_Baseline_main_no_click,None,Werk,,,,,OA03,001,no,1500,2000,126,345,424,2024-08-26_10h59.12.363,EXNAT_3_fMRI_Psychopy2023.1.3,2023.1.3,74.98277523423715,
0,0,0,0,,,,,,,,,,,#F989A2,477.9974911212921,198.22542214393616,None,None,None,706.7891769666967,text_02,264,1,1,1,Reading_Baseline_main_no_click,None,wurde,,,,,OA03,001,no,1500,2000,126,345,424,2024-08-26_10h59.12.363,EXNAT_3_fMRI_Psychopy2023.1.3,2023.1.3,74.98277523423715,
0,0,0,0,,,,,,,,,,,#2AB7EF,478.71734499931335,198.9452760219574,None,None,None,780.8502967443637,text_02,265,1,1,1,Reading_Baseline_main_no_click,None,Hemingway,,,,,OA03,001,no,1500,2000,126,345,424,2024-08-26_10h59.12.363,EXNAT_3_fMRI_Psychopy2023.1.3,2023.1.3,74.98277523423715,
0,0,0,0,,,,,,,,,,,#88BA3F,479.50347900390625,199.7314100265503,None,None,None,642.4251483721819,text_02,266,1,1,1,Reading_Baseline_main_no_click,None,mit,,,,,OA03,001,no,1500,2000,126,345,424,2024-08-26_10h59.12.363,EXNAT_3_fMRI_Psychopy2023.1.3,2023.1.3,74.98277523423715,
0,0,0,0,,,,,,,,,,,#D292F3,480.15653896331787,200.3844699859619,None,None,None,642.4251483721819,text_02,267,1,1,1,Reading_Baseline_main_no_click,None,dem,,,,,OA03,001,no,1500,2000,126,345,424,2024-08-26_10h59.12.363,EXNAT_3_fMRI_Psychopy2023.1.3,2023.1.3,74.98277523423715,
0,0,0,0,,,,,,,,,,,#F989A2,480.8107750415802,201.03870606422424,None,None,None,874.9993113749715,text_02,268,1,1,1,Reading_Baseline_main_no_click,None,Literaturnobelpreis,,,,,OA03,001,no,1500,2000,126,345,424,2024-08-26_10h59.12.363,EXNAT_3_fMRI_Psychopy2023.1.3,2023.1.3,74.98277523423715,
0,0,0,0,,,,,,,,,,,#D292F3,481.68977904319763,201.91771006584167,None,None,None,836.5212235315225,text_02,269,1,1,1,Reading_Baseline_main_no_click,None,ausgezeichnet.,,,,,OA03,001,no,1500,2000,126,345,424,2024-08-26_10h59.12.363,EXNAT_3_fMRI_Psychopy2023.1.3,2023.1.3,74.98277523423715,
0,0,0,0,,,,,,,,,,,#88BA3F,482.52907609939575,202.7570071220398,None,None,None,642.4251483721819,text_02,270,1,1,1,Reading_Baseline_main_no_click,None,Die,,,,,OA03,001,no,1500,2000,126,345,424,2024-08-26_10h59.12.363,EXNAT_3_fMRI_Psychopy2023.1.3,2023.1.3,74.98277523423715,
0,0,0,0,,,,,,,,,,,#88BA3F,483.1836841106415,203.41161513328552,None,None,None,874.9993113749715,text_02,271,1,1,1,Reading_Baseline_main_no_click,None,Nobelpreis-Medaille,,,,,OA03,001,no,1500,2000,126,345,424,2024-08-26_10h59.12.363,EXNAT_3_fMRI_Psychopy2023.1.3,2023.1.3,74.98277523423715,
0,0,0,0,,,,,,,,,,,#2AB7EF,484.0621440410614,204.29007506370544,None,None,None,766.0096342516592,text_02,272,1,1,1,Reading_Baseline_main_no_click,None,schenkte,,,,,OA03,001,no,1500,2000,126,345,424,2024-08-26_10h59.12.363,EXNAT_3_fMRI_Psychopy2023.1.3,2023.1.3,74.98277523423715,
0,0,0,0,,,,,,,,,,,#F989A2,484.83473801612854,205.06266903877258,None,None,None,630.0,text_02,273,1,1,1,Reading_Baseline_main_no_click,None,er,,,,,OA03,001,no,1500,2000,126,345,424,2024-08-26_10h59.12.363,EXNAT_3_fMRI_Psychopy2023.1.3,2023.1.3,74.98277523423715,
0,0,0,0,,,,,,,,,,,#D292F3,485.4745669364929,205.70249795913696,None,None,None,642.4251483721819,text_02,274,1,1,1,Reading_Baseline_main_no_click,None,aus,,,,,OA03,001,no,1500,2000,126,345,424,2024-08-26_10h59.12.363,EXNAT_3_fMRI_Psychopy2023.1.3,2023.1.3,74.98277523423715,
0,0,0,0,,,,,,,,,,,#2AB7EF,486.127897977829,206.35582900047302,None,None,None,827.1836190401536,text_02,275,1,1,1,Reading_Baseline_main_no_click,None,Verbundenheit,,,,,OA03,001,no,1500,2000,126,345,424,2024-08-26_10h59.12.363,EXNAT_3_fMRI_Psychopy2023.1.3,2023.1.3,74.98277523423715,
0,0,0,0,,,,,,,,,,,#88BA3F,486.9676721096039,207.19560313224792,None,None,None,630.0,text_02,276,1,1,1,Reading_Baseline_main_no_click,None,zu,,,,,OA03,001,no,1500,2000,126,345,424,2024-08-26_10h59.12.363,EXNAT_3_fMRI_Psychopy2023.1.3,2023.1.3,74.98277523423715,
0,0,0,0,,,,,,,,,,,#F989A2,487.60728001594543,207.83521103858948,None,None,None,678.6730895011062,text_02,277,1,1,1,Reading_Baseline_main_no_click,None,Kuba,,,,,OA03,001,no,1500,2000,126,345,424,2024-08-26_10h59.12.363,EXNAT_3_fMRI_Psychopy2023.1.3,2023.1.3,74.98277523423715,
0,0,0,0,,,,,,,,,,,#88BA3F,488.30036997795105,208.5283010005951,None,None,None,642.4251483721819,text_02,278,1,1,1,Reading_Baseline_main_no_click,None,der,,,,,OA03,001,no,1500,2000,126,345,424,2024-08-26_10h59.12.363,EXNAT_3_fMRI_Psychopy2023.1.3,2023.1.3,74.98277523423715,
0,0,0,0,,,,,,,,,,,#88BA3F,488.95430612564087,209.1822371482849,None,None,None,853.3461790022125,text_02,279,1,1,1,Reading_Baseline_main_no_click,None,Wallfahrtskirche,,,,,OA03,001,no,1500,2000,126,345,424,2024-08-26_10h59.12.363,EXNAT_3_fMRI_Psychopy2023.1.3,2023.1.3,74.98277523423715,
0,0,0,0,,,,,,,,,,,#2AB7EF,489.819708108902,210.04763913154602,None,None,None,642.4251483721819,text_02,280,1,1,1,Reading_Baseline_main_no_click,None,der,,,,,OA03,001,no,1500,2000,126,345,424,2024-08-26_10h59.12.363,EXNAT_3_fMRI_Psychopy2023.1.3,2023.1.3,74.98277523423715,
0,0,0,0,,,,,,,,,,,#F989A2,490.4730751514435,210.70100617408752,None,None,None,817.0982378732881,text_02,281,1,1,1,Reading_Baseline_main_no_click,None,barmherzigen,,,,,OA03,001,no,1500,2000,126,345,424,2024-08-26_10h59.12.363,EXNAT_3_fMRI_Psychopy2023.1.3,2023.1.3,74.98277523423715,
0,0,0,0,,,,,,,,,,,#D292F3,491.2993469238281,211.52727794647217,None,None,None,766.0096342516592,text_02,282,1,1,1,Reading_Baseline_main_no_click,None,Jungfrau,,,,,OA03,001,no,1500,2000,126,345,424,2024-08-26_10h59.12.363,EXNAT_3_fMRI_Psychopy2023.1.3,2023.1.3,74.98277523423715,
0,0,0,0,,,,,,,,,,,#F989A2,492.0722351074219,212.30016613006592,None,None,None,642.4251483721819,text_02,283,1,1,1,Reading_Baseline_main_no_click,None,von,,,,,OA03,001,no,1500,2000,126,345,424,2024-08-26_10h59.12.363,EXNAT_3_fMRI_Psychopy2023.1.3,2023.1.3,74.98277523423715,
0,0,0,0,,,,,,,,,,,#2AB7EF,492.72630500793457,212.9542360305786,None,None,None,729.7616931227349,text_02,284,1,1,1,Reading_Baseline_main_no_click,None,Cobre.,,,,,OA03,001,no,1500,2000,126,345,424,2024-08-26_10h59.12.363,EXNAT_3_fMRI_Psychopy2023.1.3,2023.1.3,74.98277523423715,
0,0,0,0,,,,,,,,,,,#88BA3F,493.45863914489746,213.6865701675415,None,None,None,642.4251483721819,text_02,285,1,1,1,Reading_Baseline_main_no_click,None,Sie,,,,,OA03,001,no,1500,2000,126,345,424,2024-08-26_10h59.12.363,EXNAT_3_fMRI_Psychopy2023.1.3,2023.1.3,74.98277523423715,
0,0,0,0,,,,,,,,,,,#D292F3,494.1115231513977,214.33945417404175,None,None,None,642.4251483721819,text_02,286,1,1,1,Reading_Baseline_main_no_click,None,ist,,,,,OA03,001,no,1500,2000,126,345,424,2024-08-26_10h59.12.363,EXNAT_3_fMRI_Psychopy2023.1.3,2023.1.3,74.98277523423715,
0,0,0,0,,,,,,,,,,,#2AB7EF,494.76469707489014,214.99262809753418,None,None,None,642.4251483721819,text_02,287,1,1,1,Reading_Baseline_main_no_click,None,die,,,,,OA03,001,no,1500,2000,126,345,424,2024-08-26_10h59.12.363,EXNAT_3_fMRI_Psychopy2023.1.3,2023.1.3,74.98277523423715,
0,0,0,0,,,,,,,,,,,#D292F3,495.41835498809814,215.6462860107422,None,None,None,836.5212235315225,text_02,288,1,1,1,Reading_Baseline_main_no_click,None,Schutzpatronin,,,,,OA03,001,no,1500,2000,126,345,424,2024-08-26_10h59.12.363,EXNAT_3_fMRI_Psychopy2023.1.3,2023.1.3,74.98277523423715,
0,0,0,0,,,,,,,,,,,#88BA3F,496.25762701034546,216.4855580329895,None,None,None,729.7616931227349,text_02,289,1,1,1,Reading_Baseline_main_no_click,None,Kubas.,,,,,OA03,001,no,1500,2000,126,345,424,2024-08-26_10h59.12.363,EXNAT_3_fMRI_Psychopy2023.1.3,2023.1.3,74.98277523423715,
0,0,0,0,,,,,,,,,,,#F989A2,496.990562915802,217.21849393844604,None,None,None,642.4251483721819,text_02,290,1,1,1,Reading_Baseline_main_no_click,None,Die,,,,,OA03,001,no,1500,2000,126,345,424,2024-08-26_10h59.12.363,EXNAT_3_fMRI_Psychopy2023.1.3,2023.1.3,74.98277523423715,
0,0,0,0,,,,,,,,,,,#88BA3F,497.64398312568665,217.8719141483307,None,None,None,766.0096342516592,text_02,291,1,1,1,Reading_Baseline_main_no_click,None,Medaille,,,,,OA03,001,no,1500,2000,126,345,424,2024-08-26_10h59.12.363,EXNAT_3_fMRI_Psychopy2023.1.3,2023.1.3,74.98277523423715,
0,0,0,0,,,,,,,,,,,#D292F3,498.4168620109558,218.64479303359985,None,None,None,642.4251483721819,text_02,292,1,1,1,Reading_Baseline_main_no_click,None,ist,,,,,OA03,001,no,1500,2000,126,345,424,2024-08-26_10h59.12.363,EXNAT_3_fMRI_Psychopy2023.1.3,2023.1.3,74.98277523423715,
0,0,0,0,,,,,,,,,,,#2AB7EF,499.0697510242462,219.29768204689026,None,None,None,678.6730895011062,text_02,293,1,1,1,Reading_Baseline_main_no_click,None,auch,,,,,OA03,001,no,1500,2000,126,345,424,2024-08-26_10h59.12.363,EXNAT_3_fMRI_Psychopy2023.1.3,2023.1.3,74.98277523423715,
0,0,0,0,,,,,,,,,,,#D292F3,499.7632169723511,219.99114799499512,None,None,None,706.7891769666967,text_02,294,1,1,1,Reading_Baseline_main_no_click,None,heute,,,,,OA03,001,no,1500,2000,126,345,424,2024-08-26_10h59.12.363,EXNAT_3_fMRI_Psychopy2023.1.3,2023.1.3,74.98277523423715,
0,0,0,0,,,,,,,,,,,#88BA3F,500.4828300476074,220.71076107025146,None,None,None,678.6730895011062,text_02,295,1,1,1,Reading_Baseline_main_no_click,None,noch,,,,,OA03,001,no,1500,2000,126,345,424,2024-08-26_10h59.12.363,EXNAT_3_fMRI_Psychopy2023.1.3,2023.1.3,74.98277523423715,
0,0,0,0,,,,,,,,,,,#2AB7EF,501.17575907707214,221.4036900997162,None,None,None,630.0,text_02,296,1,1,1,Reading_Baseline_main_no_click,None,in,,,,,OA03,001,no,1500,2000,126,345,424,2024-08-26_10h59.12.363,EXNAT_3_fMRI_Psychopy2023.1.3,2023.1.3,74.98277523423715,
0,0,0,0,,,,,,,,,,,#F989A2,501.8155801296234,222.04351115226746,None,None,None,642.4251483721819,text_02,297,1,1,1,Reading_Baseline_main_no_click,None,der,,,,,OA03,001,no,1500,2000,126,345,424,2024-08-26_10h59.12.363,EXNAT_3_fMRI_Psychopy2023.1.3,2023.1.3,74.98277523423715,
0,0,0,0,,,,,,,,,,,#2AB7EF,502.4689040184021,222.69683504104614,None,None,None,729.7616931227349,text_02,298,1,1,1,Reading_Baseline_main_no_click,None,Kirche,,,,,OA03,001,no,1500,2000,126,345,424,2024-08-26_10h59.12.363,EXNAT_3_fMRI_Psychopy2023.1.3,2023.1.3,74.98277523423715,
0,0,0,0,,,,,,,,,,,#88BA3F,503.20174407958984,223.4296751022339,None,None,None,630.0,text_02,299,1,1,1,Reading_Baseline_main_no_click,None,zu,,,,,OA03,001,no,1500,2000,126,345,424,2024-08-26_10h59.12.363,EXNAT_3_fMRI_Psychopy2023.1.3,2023.1.3,74.98277523423715,
0,0,0,0,,,,,,,,,,,#F989A2,503.84171199798584,224.06964302062988,None,None,None,729.7616931227349,text_02,300,1,1,1,Reading_Baseline_main_no_click,None,sehen.,,,,,OA03,001,no,1500,2000,126,345,424,2024-08-26_10h59.12.363,EXNAT_3_fMRI_Psychopy2023.1.3,2023.1.3,74.98277523423715,
0,0,0,0,,,,,,,,,,,,504.6239380836487,224.85186910629272,,,,,text_02,,1,1,1,Reading_Baseline_main_no_click,None,,Q1,3,c,True,OA03,001,no,1500,2000,126,345,424,2024-08-26_10h59.12.363,EXNAT_3_fMRI_Psychopy2023.1.3,2023.1.3,74.98277523423715,
0,0,0,0,,,,,,,,,,,,509.75630593299866,229.9842369556427,,,,,text_02,,1,1,1,Reading_Baseline_main_no_click,None,,Q2,1,a,True,OA03,001,no,1500,2000,126,345,424,2024-08-26_10h59.12.363,EXNAT_3_fMRI_Psychopy2023.1.3,2023.1.3,74.98277523423715,
0,0,0,0,,,,,,,,,,,,513.5183010101318,233.74623203277588,,,,,text_02,,1,1,1,Reading_Baseline_main_no_click,None,,Q3,3,c,True,OA03,001,no,1500,2000,126,345,424,2024-08-26_10h59.12.363,EXNAT_3_fMRI_Psychopy2023.1.3,2023.1.3,74.98277523423715,
0,0,0,0,,,,,,,,,,,,,,,,,,,,,,,,,,,,,,OA03,001,no,1500,2000,126,345,424,2024-08-26_10h59.12.363,EXNAT_3_fMRI_Psychopy2023.1.3,2023.1.3,74.98277523423715,
1,0,1,0,,,,,,,,,,,#D292F3,527.2275011539459,247.45543217658997,None,None,None,817.0982378732881,pseudo_text_04,1,2,1,2,Reading_pseudotext_no_click,None,Karstfronnde,,,,,OA03,001,no,1500,2000,126,345,424,2024-08-26_10h59.12.363,EXNAT_3_fMRI_Psychopy2023.1.3,2023.1.3,74.98277523423715,
1,0,1,0,,,,,,,,,,,#88BA3F,528.0599279403687,248.2878589630127,None,None,None,642.4251483721819,pseudo_text_04,2,2,1,2,Reading_pseudotext_no_click,None,und,,,,,OA03,001,no,1500,2000,126,345,424,2024-08-26_10h59.12.363,EXNAT_3_fMRI_Psychopy2023.1.3,2023.1.3,74.98277523423715,
1,0,1,0,,,,,,,,,,,#88BA3F,528.7140550613403,248.94198608398438,None,None,None,845.2143253388786,pseudo_text_04,3,2,1,2,Reading_pseudotext_no_click,None,Argtumkeifhaber,,,,,OA03,001,no,1500,2000,126,345,424,2024-08-26_10h59.12.363,EXNAT_3_fMRI_Psychopy2023.1.3,2023.1.3,74.98277523423715,
1,0,1,0,,,,,,,,,,,#2AB7EF,529.565761089325,249.793692111969,None,None,None,642.4251483721819,pseudo_text_04,4,2,1,2,Reading_pseudotext_no_click,None,aus,,,,,OA03,001,no,1500,2000,126,345,424,2024-08-26_10h59.12.363,EXNAT_3_fMRI_Psychopy2023.1.3,2023.1.3,74.98277523423715,
1,0,1,0,,,,,,,,,,,#D292F3,530.2194299697876,250.44736099243164,None,None,None,706.7891769666967,pseudo_text_04,5,2,1,2,Reading_pseudotext_no_click,None,asser,,,,,OA03,001,no,1500,2000,126,345,424,2024-08-26_10h59.12.363,EXNAT_3_fMRI_Psychopy2023.1.3,2023.1.3,74.98277523423715,
1,0,1,0,,,,,,,,,,,#88BA3F,530.9389021396637,251.16683316230774,None,None,None,678.6730895011062,pseudo_text_04,6,2,1,2,Reading_pseudotext_no_click,None,Felt,,,,,OA03,001,no,1500,2000,126,345,424,2024-08-26_10h59.12.363,EXNAT_3_fMRI_Psychopy2023.1.3,2023.1.3,74.98277523423715,
1,0,1,0,,,,,,,,,,,#F989A2,531.6316211223602,251.85955214500427,None,None,None,678.6730895011062,pseudo_text_04,7,2,1,2,Reading_pseudotext_no_click,None,hind,,,,,OA03,001,no,1500,2000,126,345,424,2024-08-26_10h59.12.363,EXNAT_3_fMRI_Psychopy2023.1.3,2023.1.3,74.98277523423715,
1,0,1,0,,,,,,,,,,,#2AB7EF,532.3246071338654,252.5525381565094,None,None,None,630.0,pseudo_text_04,8,2,1,2,Reading_pseudotext_no_click,None,am,,,,,OA03,001,no,1500,2000,126,345,424,2024-08-26_10h59.12.363,EXNAT_3_fMRI_Psychopy2023.1.3,2023.1.3,74.98277523423715,
1,0,1,0,,,,,,,,,,,#F989A2,532.9650449752808,253.1929759979248,None,None,None,794.1257217172498,pseudo_text_04,9,2,1,2,Reading_pseudotext_no_click,None,Gospenelle,,,,,OA03,001,no,1500,2000,126,345,424,2024-08-26_10h59.12.363,EXNAT_3_fMRI_Psychopy2023.1.3,2023.1.3,74.98277523423715,
1,0,1,0,,,,,,,,,,,#2AB7EF,533.7640669345856,253.99199795722961,None,None,None,630.0,pseudo_text_04,10,2,1,2,Reading_pseudotext_no_click,None,in,,,,,OA03,001,no,1500,2000,126,345,424,2024-08-26_10h59.12.363,EXNAT_3_fMRI_Psychopy2023.1.3,2023.1.3,74.98277523423715,
1,0,1,0,,,,,,,,,,,#F989A2,534.4042990207672,254.63223004341125,None,None,None,678.6730895011062,pseudo_text_04,11,2,1,2,Reading_pseudotext_no_click,None,Höln,,,,,OA03,001,no,1500,2000,126,345,424,2024-08-26_10h59.12.363,EXNAT_3_fMRI_Psychopy2023.1.3,2023.1.3,74.98277523423715,
1,0,1,0,,,,,,,,,,,#D292F3,535.0974900722504,255.3254210948944,None,None,None,827.1836190401536,pseudo_text_04,12,2,1,2,Reading_pseudotext_no_click,None,"eingegrönken,",,,,,OA03,001,no,1500,2000,126,345,424,2024-08-26_10h59.12.363,EXNAT_3_fMRI_Psychopy2023.1.3,2023.1.3,74.98277523423715,
1,0,1,0,,,,,,,,,,,#D292F3,535.9366569519043,256.16458797454834,None,None,None,630.0,pseudo_text_04,13,2,1,2,Reading_pseudotext_no_click,None,um,,,,,OA03,001,no,1500,2000,126,345,424,2024-08-26_10h59.12.363,EXNAT_3_fMRI_Psychopy2023.1.3,2023.1.3,74.98277523423715,
1,0,1,0,,,,,,,,,,,#F989A2,536.5764219760895,256.8043529987335,None,None,None,642.4251483721819,pseudo_text_04,14,2,1,2,Reading_pseudotext_no_click,None,das,,,,,OA03,001,no,1500,2000,126,345,424,2024-08-26_10h59.12.363,EXNAT_3_fMRI_Psychopy2023.1.3,2023.1.3,74.98277523423715,
1,0,1,0,,,,,,,,,,,#88BA3F,537.2303590774536,257.45829010009766,None,None,None,806.1348043725948,pseudo_text_04,15,2,1,2,Reading_pseudotext_no_click,None,fenotzierte,,,,,OA03,001,no,1500,2000,126,345,424,2024-08-26_10h59.12.363,EXNAT_3_fMRI_Psychopy2023.1.3,2023.1.3,74.98277523423715,
1,0,1,0,,,,,,,,,,,#D292F3,538.0431299209595,258.2710609436035,None,None,None,827.1836190401536,pseudo_text_04,16,2,1,2,Reading_pseudotext_no_click,None,Karstnestiwol,,,,,OA03,001,no,1500,2000,126,345,424,2024-08-26_10h59.12.363,EXNAT_3_fMRI_Psychopy2023.1.3,2023.1.3,74.98277523423715,
1,0,1,0,,,,,,,,,,,#F989A2,538.8822979927063,259.11022901535034,None,None,None,630.0,pseudo_text_04,17,2,1,2,Reading_pseudotext_no_click,None,zu,,,,,OA03,001,no,1500,2000,126,345,424,2024-08-26_10h59.12.363,EXNAT_3_fMRI_Psychopy2023.1.3,2023.1.3,74.98277523423715,
1,0,1,0,,,,,,,,,,,#2AB7EF,539.5222520828247,259.75018310546875,None,None,None,749.1846787809695,pseudo_text_04,18,2,1,2,Reading_pseudotext_no_click,None,"seieln,",,,,,OA03,001,no,1500,2000,126,345,424,2024-08-26_10h59.12.363,EXNAT_3_fMRI_Psychopy2023.1.3,2023.1.3,74.98277523423715,
1,0,1,0,,,,,,,,,,,#2AB7EF,540.2817859649658,260.50971698760986,None,None,None,642.4251483721819,pseudo_text_04,19,2,1,2,Reading_pseudotext_no_click,None,das,,,,,OA03,001,no,1500,2000,126,345,424,2024-08-26_10h59.12.363,EXNAT_3_fMRI_Psychopy2023.1.3,2023.1.3,74.98277523423715,
1,0,1,0,,,,,,,,,,,#88BA3F,540.9349360466003,261.1628670692444,None,None,None,642.4251483721819,pseudo_text_04,20,2,1,2,Reading_pseudotext_no_click,None,die,,,,,OA03,001,no,1500,2000,126,345,424,2024-08-26_10h59.12.363,EXNAT_3_fMRI_Psychopy2023.1.3,2023.1.3,74.98277523423715,
1,0,1,0,,,,,,,,,,,#88BA3F,541.5886220932007,261.8165531158447,None,None,None,806.1348043725948,pseudo_text_04,21,2,1,2,Reading_pseudotext_no_click,None,biedfältige,,,,,OA03,001,no,1500,2000,126,345,424,2024-08-26_10h59.12.363,EXNAT_3_fMRI_Psychopy2023.1.3,2023.1.3,74.98277523423715,
1,0,1,0,,,,,,,,,,,#F989A2,542.4018530845642,262.62978410720825,None,None,None,806.1348043725948,pseudo_text_04,22,2,1,2,Reading_pseudotext_no_click,None,Argtumqueme,,,,,OA03,001,no,1500,2000,126,345,424,2024-08-26_10h59.12.363,EXNAT_3_fMRI_Psychopy2023.1.3,2023.1.3,74.98277523423715,
1,0,1,0,,,,,,,,,,,#88BA3F,543.2143239974976,263.4422550201416,None,None,None,642.4251483721819,pseudo_text_04,23,2,1,2,Reading_pseudotext_no_click,None,der,,,,,OA03,001,no,1500,2000,126,345,424,2024-08-26_10h59.12.363,EXNAT_3_fMRI_Psychopy2023.1.3,2023.1.3,74.98277523423715,
1,0,1,0,,,,,,,,,,,#D292F3,543.8683140277863,264.0962450504303,None,None,None,706.7891769666967,pseudo_text_04,24,2,1,2,Reading_pseudotext_no_click,None,Stoyt,,,,,OA03,001,no,1500,2000,126,345,424,2024-08-26_10h59.12.363,EXNAT_3_fMRI_Psychopy2023.1.3,2023.1.3,74.98277523423715,
1,0,1,0,,,,,,,,,,,#F989A2,544.5878789424896,264.81580996513367,None,None,None,836.5212235315225,pseudo_text_04,25,2,1,2,Reading_pseudotext_no_click,None,reszösennielt.,,,,,OA03,001,no,1500,2000,126,345,424,2024-08-26_10h59.12.363,EXNAT_3_fMRI_Psychopy2023.1.3,2023.1.3,74.98277523423715,
1,0,1,0,,,,,,,,,,,#D292F3,545.4271750450134,265.65510606765747,None,None,None,642.4251483721819,pseudo_text_04,26,2,1,2,Reading_pseudotext_no_click,None,Mit,,,,,OA03,001,no,1500,2000,126,345,424,2024-08-26_10h59.12.363,EXNAT_3_fMRI_Psychopy2023.1.3,2023.1.3,74.98277523423715,
1,0,1,0,,,,,,,,,,,#D292F3,546.0801229476929,266.3080539703369,None,None,None,729.7616931227349,pseudo_text_04,27,2,1,2,Reading_pseudotext_no_click,None,seisen,,,,,OA03,001,no,1500,2000,126,345,424,2024-08-26_10h59.12.363,EXNAT_3_fMRI_Psychopy2023.1.3,2023.1.3,74.98277523423715,
1,0,1,0,,,,,,,,,,,#D292F3,546.8136401176453,267.0415711402893,None,None,None,827.1836190401536,pseudo_text_04,28,2,1,2,Reading_pseudotext_no_click,None,einküsartiden,,,,,OA03,001,no,1500,2000,126,345,424,2024-08-26_10h59.12.363,EXNAT_3_fMRI_Psychopy2023.1.3,2023.1.3,74.98277523423715,
1,0,1,0,,,,,,,,,,,#88BA3F,547.653783082962,267.8817141056061,None,None,None,780.8502967443637,pseudo_text_04,29,2,1,2,Reading_pseudotext_no_click,None,"Varerein,",,,,,OA03,001,no,1500,2000,126,345,424,2024-08-26_10h59.12.363,EXNAT_3_fMRI_Psychopy2023.1.3,2023.1.3,74.98277523423715,
1,0,1,0,,,,,,,,,,,#2AB7EF,548.439414024353,268.66734504699707,None,None,None,806.1348043725948,pseudo_text_04,30,2,1,2,Reading_pseudotext_no_click,None,inkapatifen,,,,,OA03,001,no,1500,2000,126,345,424,2024-08-26_10h59.12.363,EXNAT_3_fMRI_Psychopy2023.1.3,2023.1.3,74.98277523423715,
1,0,1,0,,,,,,,,,,,#F989A2,549.2532250881195,269.48115611076355,None,None,None,780.8502967443637,pseudo_text_04,31,2,1,2,Reading_pseudotext_no_click,None,Grojenken,,,,,OA03,001,no,1500,2000,126,345,424,2024-08-26_10h59.12.363,EXNAT_3_fMRI_Psychopy2023.1.3,2023.1.3,74.98277523423715,
1,0,1,0,,,,,,,,,,,#88BA3F,550.0383660793304,270.2662971019745,None,None,None,642.4251483721819,pseudo_text_04,32,2,1,2,Reading_pseudotext_no_click,None,und,,,,,OA03,001,no,1500,2000,126,345,424,2024-08-26_10h59.12.363,EXNAT_3_fMRI_Psychopy2023.1.3,2023.1.3,74.98277523423715,
1,0,1,0,,,,,,,,,,,#88BA3F,550.6914639472961,270.9193949699402,None,None,None,642.4251483721819,pseudo_text_04,33,2,1,2,Reading_pseudotext_no_click,None,der,,,,,OA03,001,no,1500,2000,126,345,424,2024-08-26_10h59.12.363,EXNAT_3_fMRI_Psychopy2023.1.3,2023.1.3,74.98277523423715,
1,0,1,0,,,,,,,,,,,#F989A2,551.344733953476,271.57266497612,None,None,None,794.1257217172498,pseudo_text_04,34,2,1,2,Reading_pseudotext_no_click,None,mesengigen,,,,,OA03,001,no,1500,2000,126,345,424,2024-08-26_10h59.12.363,EXNAT_3_fMRI_Psychopy2023.1.3,2023.1.3,74.98277523423715,
1,0,1,0,,,,,,,,,,,#2AB7EF,552.1452579498291,272.37318897247314,None,None,None,860.9848813510832,pseudo_text_04,35,2,1,2,Reading_pseudotext_no_click,None,Pflawenkarstqueme,,,,,OA03,001,no,1500,2000,126,345,424,2024-08-26_10h59.12.363,EXNAT_3_fMRI_Psychopy2023.1.3,2023.1.3,74.98277523423715,
1,0,1,0,,,,,,,,,,,#2AB7EF,553.0108051300049,273.2387361526489,None,None,None,729.7616931227349,pseudo_text_04,36,2,1,2,Reading_pseudotext_no_click,None,zautet,,,,,OA03,001,no,1500,2000,126,345,424,2024-08-26_10h59.12.363,EXNAT_3_fMRI_Psychopy2023.1.3,2023.1.3,74.98277523423715,
1,0,1,0,,,,,,,,,,,#2AB7EF,553.7437300682068,273.97166109085083,None,None,None,642.4251483721819,pseudo_text_04,37,2,1,2,Reading_pseudotext_no_click,None,das,,,,,OA03,001,no,1500,2000,126,345,424,2024-08-26_10h59.12.363,EXNAT_3_fMRI_Psychopy2023.1.3,2023.1.3,74.98277523423715,
1,0,1,0,,,,,,,,,,,#D292F3,554.3976781368256,274.6256091594696,None,None,None,766.0096342516592,pseudo_text_04,38,2,1,2,Reading_pseudotext_no_click,None,Nestiwol,,,,,OA03,001,no,1500,2000,126,345,424,2024-08-26_10h59.12.363,EXNAT_3_fMRI_Psychopy2023.1.3,2023.1.3,74.98277523423715,
1,0,1,0,,,,,,,,,,,#D292F3,555.1704680919647,275.39839911460876,None,None,None,706.7891769666967,pseudo_text_04,39,2,1,2,Reading_pseudotext_no_click,None,deges,,,,,OA03,001,no,1500,2000,126,345,424,2024-08-26_10h59.12.363,EXNAT_3_fMRI_Psychopy2023.1.3,2023.1.3,74.98277523423715,
1,0,1,0,,,,,,,,,,,#F989A2,555.8904259204865,276.1183569431305,None,None,None,678.6730895011062,pseudo_text_04,40,2,1,2,Reading_pseudotext_no_click,None,Japf,,,,,OA03,001,no,1500,2000,126,345,424,2024-08-26_10h59.12.363,EXNAT_3_fMRI_Psychopy2023.1.3,2023.1.3,74.98277523423715,
1,0,1,0,,,,,,,,,,,#D292F3,556.5827181339264,276.81064915657043,None,None,None,678.6730895011062,pseudo_text_04,41,2,1,2,Reading_pseudotext_no_click,None,eine,,,,,OA03,001,no,1500,2000,126,345,424,2024-08-26_10h59.12.363,EXNAT_3_fMRI_Psychopy2023.1.3,2023.1.3,74.98277523423715,
1,0,1,0,,,,,,,,,,,#2AB7EF,557.2760200500488,277.50395107269287,None,None,None,780.8502967443637,pseudo_text_04,42,2,1,2,Reading_pseudotext_no_click,None,einmadale,,,,,OA03,001,no,1500,2000,126,345,424,2024-08-26_10h59.12.363,EXNAT_3_fMRI_Psychopy2023.1.3,2023.1.3,74.98277523423715,
1,0,1,0,,,,,,,,,,,#88BA3F,558.0629420280457,278.2908730506897,None,None,None,817.0982378732881,pseudo_text_04,43,2,1,2,Reading_pseudotext_no_click,None,"Beleterweit,",,,,,OA03,001,no,1500,2000,126,345,424,2024-08-26_10h59.12.363,EXNAT_3_fMRI_Psychopy2023.1.3,2023.1.3,74.98277523423715,
1,0,1,0,,,,,,,,,,,#F989A2,558.8885090351105,279.1164400577545,None,None,None,642.4251483721819,pseudo_text_04,44,2,1,2,Reading_pseudotext_no_click,None,die,,,,,OA03,001,no,1500,2000,126,345,424,2024-08-26_10h59.12.363,EXNAT_3_fMRI_Psychopy2023.1.3,2023.1.3,74.98277523423715,
1,0,1,0,,,,,,,,,,,#2AB7EF,559.5420200824738,279.7699511051178,None,None,None,766.0096342516592,pseudo_text_04,45,2,1,2,Reading_pseudotext_no_click,None,zweatope,,,,,OA03,001,no,1500,2000,126,345,424,2024-08-26_10h59.12.363,EXNAT_3_fMRI_Psychopy2023.1.3,2023.1.3,74.98277523423715,
1,0,1,0,,,,,,,,,,,#F989A2,560.3152689933777,280.54320001602173,None,None,None,749.1846787809695,pseudo_text_04,46,2,1,2,Reading_pseudotext_no_click,None,Emerzau,,,,,OA03,001,no,1500,2000,126,345,424,2024-08-26_10h59.12.363,EXNAT_3_fMRI_Psychopy2023.1.3,2023.1.3,74.98277523423715,
1,0,1,0,,,,,,,,,,,#88BA3F,561.0747759342194,281.3027069568634,None,None,None,642.4251483721819,pseudo_text_04,47,2,1,2,Reading_pseudotext_no_click,None,und,,,,,OA03,001,no,1500,2000,126,345,424,2024-08-26_10h59.12.363,EXNAT_3_fMRI_Psychopy2023.1.3,2023.1.3,74.98277523423715,
1,0,1,0,,,,,,,,,,,#88BA3F,561.7281029224396,281.9560339450836,None,None,None,766.0096342516592,pseudo_text_04,48,2,1,2,Reading_pseudotext_no_click,None,Biedfalt,,,,,OA03,001,no,1500,2000,126,345,424,2024-08-26_10h59.12.363,EXNAT_3_fMRI_Psychopy2023.1.3,2023.1.3,74.98277523423715,
1,0,1,0,,,,,,,,,,,#2AB7EF,562.500580072403,282.728511095047,None,None,None,642.4251483721819,pseudo_text_04,49,2,1,2,Reading_pseudotext_no_click,None,der,,,,,OA03,001,no,1500,2000,126,345,424,2024-08-26_10h59.12.363,EXNAT_3_fMRI_Psychopy2023.1.3,2023.1.3,74.98277523423715,
1,0,1,0,,,,,,,,,,,#2AB7EF,563.1538181304932,283.3817491531372,None,None,None,706.7891769666967,pseudo_text_04,50,2,1,2,Reading_pseudotext_no_click,None,Stoyt,,,,,OA03,001,no,1500,2000,126,345,424,2024-08-26_10h59.12.363,EXNAT_3_fMRI_Psychopy2023.1.3,2023.1.3,74.98277523423715,
1,0,1,0,,,,,,,,,,,#D292F3,563.8733730316162,284.10130405426025,None,None,None,630.0,pseudo_text_04,51,2,1,2,Reading_pseudotext_no_click,None,zu,,,,,OA03,001,no,1500,2000,126,345,424,2024-08-26_10h59.12.363,EXNAT_3_fMRI_Psychopy2023.1.3,2023.1.3,74.98277523423715,
1,0,1,0,,,,,,,,,,,#D292F3,564.5133831501007,284.74131417274475,None,None,None,766.0096342516592,pseudo_text_04,52,2,1,2,Reading_pseudotext_no_click,None,erbipen.,,,,,OA03,001,no,1500,2000,126,345,424,2024-08-26_10h59.12.363,EXNAT_3_fMRI_Psychopy2023.1.3,2023.1.3,74.98277523423715,
1,0,1,0,,,,,,,,,,,#88BA3F,565.2871611118317,285.5150921344757,None,None,None,766.0096342516592,pseudo_text_04,53,2,1,2,Reading_pseudotext_no_click,None,Zeluchem,,,,,OA03,001,no,1500,2000,126,345,424,2024-08-26_10h59.12.363,EXNAT_3_fMRI_Psychopy2023.1.3,2023.1.3,74.98277523423715,
1,0,1,0,,,,,,,,,,,#F989A2,566.0595049858093,286.28743600845337,None,None,None,729.7616931227349,pseudo_text_04,54,2,1,2,Reading_pseudotext_no_click,None,letten,,,,,OA03,001,no,1500,2000,126,345,424,2024-08-26_10h59.12.363,EXNAT_3_fMRI_Psychopy2023.1.3,2023.1.3,74.98277523423715,
1,0,1,0,,,,,,,,,,,#88BA3F,566.7927420139313,287.0206730365753,None,None,None,642.4251483721819,pseudo_text_04,55,2,1,2,Reading_pseudotext_no_click,None,die,,,,,OA03,001,no,1500,2000,126,345,424,2024-08-26_10h59.12.363,EXNAT_3_fMRI_Psychopy2023.1.3,2023.1.3,74.98277523423715,
1,0,1,0,,,,,,,,,,,#D292F3,567.4459390640259,287.6738700866699,None,None,None,780.8502967443637,pseudo_text_04,56,2,1,2,Reading_pseudotext_no_click,None,einmadale,,,,,OA03,001,no,1500,2000,126,345,424,2024-08-26_10h59.12.363,EXNAT_3_fMRI_Psychopy2023.1.3,2023.1.3,74.98277523423715,
