loop_run1_single_reading.thisRepN,loop_run1_single_reading.thisTrialN,loop_run1_single_reading.thisN,loop_run1_single_reading.thisIndex,loop_run2_single_nback.thisRepN,loop_run2_single_nback.thisTrialN,loop_run2_single_nback.thisN,loop_run2_single_nback.thisIndex,loop_dual_task_blocks.thisRepN,loop_dual_task_blocks.thisTrialN,loop_dual_task_blocks.thisN,loop_dual_task_blocks.thisIndex,TriggerCount,TriggerTime,colour,global_onset_time,onset_time_rel2trigger,target,nback_response,nback_RT,duration,text_nr,trial_nr,block_nr_exp,run_nr,block_nr_run,block_name,n-back_level,word,question,button_pressed,chosen_ans,ans_correct,participant,session,testing_mode,RT_per_rectangle_oneback_single,RT_per_rectangle_twoback_single,RT_per_letter_baseline,RT_per_letter_oneback_dual,RT_per_letter_twoback_dual,date,expName,psychopyVersion,frameRate,
0,0,0,0,,,,,,,,,1,694.1995179653168,#88BA3F,705.0416820049286,10.842164039611816,None,None,None,581.2418009081646,text_05,1,1,1,1,Reading_Baseline_main_no_click,None,Die,,,,,OA04,001,no,698,1590,114,142,430,2024-08-28_08h57.55.309,EXNAT_3_fMRI_Psychopy2023.1.3,2023.1.3,74.94780479959974,
0,0,0,0,,,,,,,,,,,#2AB7EF,705.6373701095581,11.437852144241333,None,None,None,748.4042267506152,text_05,2,1,1,1,Reading_Baseline_main_no_click,None,Korallenriffe,,,,,OA04,001,no,698,1590,114,142,430,2024-08-28_08h57.55.309,EXNAT_3_fMRI_Psychopy2023.1.3,2023.1.3,74.94780479959974,
0,0,0,0,,,,,,,,,,,#D292F3,706.3956871032715,12.196169137954712,None,None,None,581.2418009081646,text_05,3,1,1,1,Reading_Baseline_main_no_click,None,und,,,,,OA04,001,no,698,1590,114,142,430,2024-08-28_08h57.55.309,EXNAT_3_fMRI_Psychopy2023.1.3,2023.1.3,74.94780479959974,
0,0,0,0,,,,,,,,,,,#88BA3F,706.981495141983,12.78197717666626,None,None,None,581.2418009081646,text_05,4,1,1,1,Reading_Baseline_main_no_click,None,die,,,,,OA04,001,no,698,1590,114,142,430,2024-08-28_08h57.55.309,EXNAT_3_fMRI_Psychopy2023.1.3,2023.1.3,74.94780479959974,
0,0,0,0,,,,,,,,,,,#D292F3,707.5688269138336,13.369308948516846,None,None,None,693.0563357515013,text_05,5,1,1,1,Reading_Baseline_main_no_click,None,sandigen,,,,,OA04,001,no,698,1590,114,142,430,2024-08-28_08h57.55.309,EXNAT_3_fMRI_Psychopy2023.1.3,2023.1.3,74.94780479959974,
0,0,0,0,,,,,,,,,,,#2AB7EF,708.2757060527802,14.076188087463379,None,None,None,677.8337569923057,text_05,6,1,1,1,Reading_Baseline_main_no_click,None,Buchten,,,,,OA04,001,no,698,1590,114,142,430,2024-08-28_08h57.55.309,EXNAT_3_fMRI_Psychopy2023.1.3,2023.1.3,74.94780479959974,
0,0,0,0,,,,,,,,,,,#F989A2,708.967698097229,14.768180131912231,None,None,None,614.0375571676675,text_05,7,1,1,1,Reading_Baseline_main_no_click,None,sind,,,,,OA04,001,no,698,1590,114,142,430,2024-08-28_08h57.55.309,EXNAT_3_fMRI_Psychopy2023.1.3,2023.1.3,74.94780479959974,
0,0,0,0,,,,,,,,,,,#88BA3F,709.5946750640869,15.395157098770142,None,None,None,677.8337569923057,text_05,8,1,1,1,Reading_Baseline_main_no_click,None,perfekt,,,,,OA04,001,no,698,1590,114,142,430,2024-08-28_08h57.55.309,EXNAT_3_fMRI_Psychopy2023.1.3,2023.1.3,74.94780479959974,
0,0,0,0,,,,,,,,,,,#2AB7EF,710.2874069213867,16.087888956069946,None,None,None,581.2418009081646,text_05,9,1,1,1,Reading_Baseline_main_no_click,None,für,,,,,OA04,001,no,698,1590,114,142,430,2024-08-28_08h57.55.309,EXNAT_3_fMRI_Psychopy2023.1.3,2023.1.3,74.94780479959974,
0,0,0,0,,,,,,,,,,,#D292F3,710.8738250732422,16.674307107925415,None,None,None,614.0375571676675,text_05,10,1,1,1,Reading_Baseline_main_no_click,None,jede,,,,,OA04,001,no,698,1590,114,142,430,2024-08-28_08h57.55.309,EXNAT_3_fMRI_Psychopy2023.1.3,2023.1.3,74.94780479959974,
0,0,0,0,,,,,,,,,,,#F989A2,711.5009341239929,17.301416158676147,None,None,None,778.9863212224086,text_05,11,1,1,1,Reading_Baseline_main_no_click,None,Urlaubsbroschüre.,,,,,OA04,001,no,698,1590,114,142,430,2024-08-28_08h57.55.309,EXNAT_3_fMRI_Psychopy2023.1.3,2023.1.3,74.94780479959974,
0,0,0,0,,,,,,,,,,,#D292F3,712.2869279384613,18.08740997314453,None,None,None,706.483601816329,text_05,12,1,1,1,Reading_Baseline_main_no_click,None,Insgesamt,,,,,OA04,001,no,698,1590,114,142,430,2024-08-28_08h57.55.309,EXNAT_3_fMRI_Psychopy2023.1.3,2023.1.3,74.94780479959974,
0,0,0,0,,,,,,,,,,,#F989A2,713.0058529376984,18.806334972381592,None,None,None,581.2418009081646,text_05,13,1,1,1,Reading_Baseline_main_no_click,None,ist,,,,,OA04,001,no,698,1590,114,142,430,2024-08-28_08h57.55.309,EXNAT_3_fMRI_Psychopy2023.1.3,2023.1.3,74.94780479959974,
0,0,0,0,,,,,,,,,,,#88BA3F,713.5923209190369,19.392802953720093,None,None,None,581.2418009081646,text_05,14,1,1,1,Reading_Baseline_main_no_click,None,die,,,,,OA04,001,no,698,1590,114,142,430,2024-08-28_08h57.55.309,EXNAT_3_fMRI_Psychopy2023.1.3,2023.1.3,74.94780479959974,
0,0,0,0,,,,,,,,,,,#F989A2,714.1792891025543,19.97977113723755,None,None,None,729.3600610990143,text_05,15,1,1,1,Reading_Baseline_main_no_click,None,Inselgruppe,,,,,OA04,001,no,698,1590,114,142,430,2024-08-28_08h57.55.309,EXNAT_3_fMRI_Psychopy2023.1.3,2023.1.3,74.94780479959974,
0,0,0,0,,,,,,,,,,,#2AB7EF,714.9120290279388,20.71251106262207,None,None,None,660.2605794919982,text_05,16,1,1,1,Reading_Baseline_main_no_click,None,namens,,,,,OA04,001,no,698,1590,114,142,430,2024-08-28_08h57.55.309,EXNAT_3_fMRI_Psychopy2023.1.3,2023.1.3,74.94780479959974,
0,0,0,0,,,,,,,,,,,#D292F3,715.5792529582977,21.379734992980957,None,None,None,614.0375571676675,text_05,17,1,1,1,Reading_Baseline_main_no_click,None,Nosy,,,,,OA04,001,no,698,1590,114,142,430,2024-08-28_08h57.55.309,EXNAT_3_fMRI_Psychopy2023.1.3,2023.1.3,74.94780479959974,
0,0,0,0,,,,,,,,,,,#2AB7EF,716.2059891223907,22.006471157073975,None,None,None,614.0375571676675,text_05,18,1,1,1,Reading_Baseline_main_no_click,None,Hara,,,,,OA04,001,no,698,1590,114,142,430,2024-08-28_08h57.55.309,EXNAT_3_fMRI_Psychopy2023.1.3,2023.1.3,74.94780479959974,
0,0,0,0,,,,,,,,,,,#88BA3F,716.8317220211029,22.632204055786133,None,None,None,581.2418009081646,text_05,19,1,1,1,Reading_Baseline_main_no_click,None,vor,,,,,OA04,001,no,698,1590,114,142,430,2024-08-28_08h57.55.309,EXNAT_3_fMRI_Psychopy2023.1.3,2023.1.3,74.94780479959974,
0,0,0,0,,,,,,,,,,,#F989A2,717.4187140464783,23.2191960811615,None,None,None,718.4947006013213,text_05,20,1,1,1,Reading_Baseline_main_no_click,None,Madagaskar,,,,,OA04,001,no,698,1590,114,142,430,2024-08-28_08h57.55.309,EXNAT_3_fMRI_Psychopy2023.1.3,2023.1.3,74.94780479959974,
0,0,0,0,,,,,,,,,,,#D292F3,718.1507229804993,23.951205015182495,None,None,None,614.0375571676675,text_05,21,1,1,1,Reading_Baseline_main_no_click,None,aber,,,,,OA04,001,no,698,1590,114,142,430,2024-08-28_08h57.55.309,EXNAT_3_fMRI_Psychopy2023.1.3,2023.1.3,74.94780479959974,
0,0,0,0,,,,,,,,,,,#2AB7EF,718.7771780490875,24.577660083770752,None,None,None,614.0375571676675,text_05,22,1,1,1,Reading_Baseline_main_no_click,None,doch,,,,,OA04,001,no,698,1590,114,142,430,2024-08-28_08h57.55.309,EXNAT_3_fMRI_Psychopy2023.1.3,2023.1.3,74.94780479959974,
0,0,0,0,,,,,,,,,,,#F989A2,719.4037339687347,25.20421600341797,None,None,None,639.4759220174874,text_05,23,1,1,1,Reading_Baseline_main_no_click,None,recht,,,,,OA04,001,no,698,1590,114,142,430,2024-08-28_08h57.55.309,EXNAT_3_fMRI_Psychopy2023.1.3,2023.1.3,74.94780479959974,
0,0,0,0,,,,,,,,,,,#2AB7EF,720.0567879676819,25.857270002365112,None,None,None,639.4759220174874,text_05,24,1,1,1,Reading_Baseline_main_no_click,None,karg.,,,,,OA04,001,no,698,1590,114,142,430,2024-08-28_08h57.55.309,EXNAT_3_fMRI_Psychopy2023.1.3,2023.1.3,74.94780479959974,
0,0,0,0,,,,,,,,,,,#88BA3F,720.7100131511688,26.51049518585205,None,None,None,570.0,text_05,25,1,1,1,Reading_Baseline_main_no_click,None,In,,,,,OA04,001,no,698,1590,114,142,430,2024-08-28_08h57.55.309,EXNAT_3_fMRI_Psychopy2023.1.3,2023.1.3,74.94780479959974,
0,0,0,0,,,,,,,,,,,#D292F3,721.283313035965,27.083795070648193,None,None,None,660.2605794919982,text_05,26,1,1,1,Reading_Baseline_main_no_click,None,dieser,,,,,OA04,001,no,698,1590,114,142,430,2024-08-28_08h57.55.309,EXNAT_3_fMRI_Psychopy2023.1.3,2023.1.3,74.94780479959974,
0,0,0,0,,,,,,,,,,,#88BA3F,721.9495379924774,27.750020027160645,None,None,None,614.0375571676675,text_05,27,1,1,1,Reading_Baseline_main_no_click,None,eher,,,,,OA04,001,no,698,1590,114,142,430,2024-08-28_08h57.55.309,EXNAT_3_fMRI_Psychopy2023.1.3,2023.1.3,74.94780479959974,
0,0,0,0,,,,,,,,,,,#88BA3F,722.5764420032501,28.37692403793335,None,None,None,778.9863212224086,text_05,28,1,1,1,Reading_Baseline_main_no_click,None,lebensfeindlichen,,,,,OA04,001,no,698,1590,114,142,430,2024-08-28_08h57.55.309,EXNAT_3_fMRI_Psychopy2023.1.3,2023.1.3,74.94780479959974,
0,0,0,0,,,,,,,,,,,#F989A2,723.3628621101379,29.163344144821167,None,None,None,693.0563357515013,text_05,29,1,1,1,Reading_Baseline_main_no_click,None,Umgebung,,,,,OA04,001,no,698,1590,114,142,430,2024-08-28_08h57.55.309,EXNAT_3_fMRI_Psychopy2023.1.3,2023.1.3,74.94780479959974,
0,0,0,0,,,,,,,,,,,#88BA3F,724.0690219402313,29.86950397491455,None,None,None,639.4759220174874,text_05,30,1,1,1,Reading_Baseline_main_no_click,None,haben,,,,,OA04,001,no,698,1590,114,142,430,2024-08-28_08h57.55.309,EXNAT_3_fMRI_Psychopy2023.1.3,2023.1.3,74.94780479959974,
0,0,0,0,,,,,,,,,,,#F989A2,724.7220571041107,30.522539138793945,None,None,None,693.0563357515013,text_05,31,1,1,1,Reading_Baseline_main_no_click,None,Biologen,,,,,OA04,001,no,698,1590,114,142,430,2024-08-28_08h57.55.309,EXNAT_3_fMRI_Psychopy2023.1.3,2023.1.3,74.94780479959974,
0,0,0,0,,,,,,,,,,,#D292F3,725.4281330108643,31.228615045547485,None,None,None,581.2418009081646,text_05,32,1,1,1,Reading_Baseline_main_no_click,None,nun,,,,,OA04,001,no,698,1590,114,142,430,2024-08-28_08h57.55.309,EXNAT_3_fMRI_Psychopy2023.1.3,2023.1.3,74.94780479959974,
0,0,0,0,,,,,,,,,,,#88BA3F,726.0146059989929,31.815088033676147,None,None,None,614.0375571676675,text_05,33,1,1,1,Reading_Baseline_main_no_click,None,eine,,,,,OA04,001,no,698,1590,114,142,430,2024-08-28_08h57.55.309,EXNAT_3_fMRI_Psychopy2023.1.3,2023.1.3,74.94780479959974,
0,0,0,0,,,,,,,,,,,#2AB7EF,726.6410460472107,32.44152808189392,None,None,None,614.0375571676675,text_05,34,1,1,1,Reading_Baseline_main_no_click,None,neue,,,,,OA04,001,no,698,1590,114,142,430,2024-08-28_08h57.55.309,EXNAT_3_fMRI_Psychopy2023.1.3,2023.1.3,74.94780479959974,
0,0,0,0,,,,,,,,,,,#2AB7EF,727.2681720256805,33.06865406036377,None,None,None,677.8337569923057,text_05,35,1,1,1,Reading_Baseline_main_no_click,None,Tierart,,,,,OA04,001,no,698,1590,114,142,430,2024-08-28_08h57.55.309,EXNAT_3_fMRI_Psychopy2023.1.3,2023.1.3,74.94780479959974,
0,0,0,0,,,,,,,,,,,#F989A2,727.9613440036774,33.761826038360596,None,None,None,706.483601816329,text_05,36,1,1,1,Reading_Baseline_main_no_click,None,entdeckt:,,,,,OA04,001,no,698,1590,114,142,430,2024-08-28_08h57.55.309,EXNAT_3_fMRI_Psychopy2023.1.3,2023.1.3,74.94780479959974,
0,0,0,0,,,,,,,,,,,#2AB7EF,728.6807210445404,34.48120307922363,None,None,None,581.2418009081646,text_05,37,1,1,1,Reading_Baseline_main_no_click,None,Das,,,,,OA04,001,no,698,1590,114,142,430,2024-08-28_08h57.55.309,EXNAT_3_fMRI_Psychopy2023.1.3,2023.1.3,74.94780479959974,
0,0,0,0,,,,,,,,,,,#88BA3F,729.2678699493408,35.06835198402405,None,None,None,677.8337569923057,text_05,38,1,1,1,Reading_Baseline_main_no_click,None,winzige,,,,,OA04,001,no,698,1590,114,142,430,2024-08-28_08h57.55.309,EXNAT_3_fMRI_Psychopy2023.1.3,2023.1.3,74.94780479959974,
0,0,0,0,,,,,,,,,,,#F989A2,729.9609911441803,35.761473178863525,None,None,None,706.483601816329,text_05,39,1,1,1,Reading_Baseline_main_no_click,None,Chamäleon,,,,,OA04,001,no,698,1590,114,142,430,2024-08-28_08h57.55.309,EXNAT_3_fMRI_Psychopy2023.1.3,2023.1.3,74.94780479959974,
0,0,0,0,,,,,,,,,,,#D292F3,730.6798870563507,36.480369091033936,None,None,None,706.483601816329,text_05,40,1,1,1,Reading_Baseline_main_no_click,None,Brookesia,,,,,OA04,001,no,698,1590,114,142,430,2024-08-28_08h57.55.309,EXNAT_3_fMRI_Psychopy2023.1.3,2023.1.3,74.94780479959974,
0,0,0,0,,,,,,,,,,,#88BA3F,731.3995499610901,37.200031995773315,None,None,None,660.2605794919982,text_05,41,1,1,1,Reading_Baseline_main_no_click,None,micra.,,,,,OA04,001,no,698,1590,114,142,430,2024-08-28_08h57.55.309,EXNAT_3_fMRI_Psychopy2023.1.3,2023.1.3,74.94780479959974,
0,0,0,0,,,,,,,,,,,#88BA3F,732.0663509368896,37.866832971572876,None,None,None,581.2418009081646,text_05,42,1,1,1,Reading_Baseline_main_no_click,None,Von,,,,,OA04,001,no,698,1590,114,142,430,2024-08-28_08h57.55.309,EXNAT_3_fMRI_Psychopy2023.1.3,2023.1.3,74.94780479959974,
0,0,0,0,,,,,,,,,,,#D292F3,732.6522860527039,38.452768087387085,None,None,None,581.2418009081646,text_05,43,1,1,1,Reading_Baseline_main_no_click,None,der,,,,,OA04,001,no,698,1590,114,142,430,2024-08-28_08h57.55.309,EXNAT_3_fMRI_Psychopy2023.1.3,2023.1.3,74.94780479959974,
0,0,0,0,,,,,,,,,,,#2AB7EF,733.3047840595245,39.105266094207764,None,None,None,693.0563357515013,text_05,44,1,1,1,Reading_Baseline_main_no_click,None,Schnauze,,,,,OA04,001,no,698,1590,114,142,430,2024-08-28_08h57.55.309,EXNAT_3_fMRI_Psychopy2023.1.3,2023.1.3,74.94780479959974,
0,0,0,0,,,,,,,,,,,#F989A2,734.0117959976196,39.812278032302856,None,None,None,581.2418009081646,text_05,45,1,1,1,Reading_Baseline_main_no_click,None,bis,,,,,OA04,001,no,698,1590,114,142,430,2024-08-28_08h57.55.309,EXNAT_3_fMRI_Psychopy2023.1.3,2023.1.3,74.94780479959974,
0,0,0,0,,,,,,,,,,,#D292F3,734.5984270572662,40.39890909194946,None,None,None,581.2418009081646,text_05,46,1,1,1,Reading_Baseline_main_no_click,None,zum,,,,,OA04,001,no,698,1590,114,142,430,2024-08-28_08h57.55.309,EXNAT_3_fMRI_Psychopy2023.1.3,2023.1.3,74.94780479959974,
0,0,0,0,,,,,,,,,,,#F989A2,735.1855499744415,40.986032009124756,None,None,None,729.3600610990143,text_05,47,1,1,1,Reading_Baseline_main_no_click,None,Schwanzende,,,,,OA04,001,no,698,1590,114,142,430,2024-08-28_08h57.55.309,EXNAT_3_fMRI_Psychopy2023.1.3,2023.1.3,74.94780479959974,
0,0,0,0,,,,,,,,,,,#2AB7EF,735.9179880619049,41.718470096588135,None,None,None,639.4759220174874,text_05,48,1,1,1,Reading_Baseline_main_no_click,None,misst,,,,,OA04,001,no,698,1590,114,142,430,2024-08-28_08h57.55.309,EXNAT_3_fMRI_Psychopy2023.1.3,2023.1.3,74.94780479959974,
0,0,0,0,,,,,,,,,,,#F989A2,736.5710399150848,42.371521949768066,None,None,None,570.0,text_05,49,1,1,1,Reading_Baseline_main_no_click,None,es,,,,,OA04,001,no,698,1590,114,142,430,2024-08-28_08h57.55.309,EXNAT_3_fMRI_Psychopy2023.1.3,2023.1.3,74.94780479959974,
0,0,0,0,,,,,,,,,,,#D292F3,737.1443700790405,42.944852113723755,None,None,None,677.8337569923057,text_05,50,1,1,1,Reading_Baseline_main_no_click,None,weniger,,,,,OA04,001,no,698,1590,114,142,430,2024-08-28_08h57.55.309,EXNAT_3_fMRI_Psychopy2023.1.3,2023.1.3,74.94780479959974,
0,0,0,0,,,,,,,,,,,#2AB7EF,737.8371920585632,43.63767409324646,None,None,None,581.2418009081646,text_05,51,1,1,1,Reading_Baseline_main_no_click,None,als,,,,,OA04,001,no,698,1590,114,142,430,2024-08-28_08h57.55.309,EXNAT_3_fMRI_Psychopy2023.1.3,2023.1.3,74.94780479959974,
0,0,0,0,,,,,,,,,,,#2AB7EF,738.4235949516296,44.224076986312866,None,None,None,614.0375571676675,text_05,52,1,1,1,Reading_Baseline_main_no_click,None,drei,,,,,OA04,001,no,698,1590,114,142,430,2024-08-28_08h57.55.309,EXNAT_3_fMRI_Psychopy2023.1.3,2023.1.3,74.94780479959974,
0,0,0,0,,,,,,,,,,,#88BA3F,739.0508201122284,44.85130214691162,None,None,None,729.3600610990143,text_05,53,1,1,1,Reading_Baseline_main_no_click,None,Zentimeter.,,,,,OA04,001,no,698,1590,114,142,430,2024-08-28_08h57.55.309,EXNAT_3_fMRI_Psychopy2023.1.3,2023.1.3,74.94780479959974,
0,0,0,0,,,,,,,,,,,#F989A2,739.7838170528412,45.584299087524414,None,None,None,693.0563357515013,text_05,54,1,1,1,Reading_Baseline_main_no_click,None,Farblich,,,,,OA04,001,no,698,1590,114,142,430,2024-08-28_08h57.55.309,EXNAT_3_fMRI_Psychopy2023.1.3,2023.1.3,74.94780479959974,
0,0,0,0,,,,,,,,,,,#2AB7EF,740.4896929264069,46.29017496109009,None,None,None,660.2605794919982,text_05,55,1,1,1,Reading_Baseline_main_no_click,None,machen,,,,,OA04,001,no,698,1590,114,142,430,2024-08-28_08h57.55.309,EXNAT_3_fMRI_Psychopy2023.1.3,2023.1.3,74.94780479959974,
0,0,0,0,,,,,,,,,,,#D292F3,741.1561210155487,46.956603050231934,None,None,None,581.2418009081646,text_05,56,1,1,1,Reading_Baseline_main_no_click,None,die,,,,,OA04,001,no,698,1590,114,142,430,2024-08-28_08h57.55.309,EXNAT_3_fMRI_Psychopy2023.1.3,2023.1.3,74.94780479959974,
0,0,0,0,,,,,,,,,,,#D292F3,741.742546081543,47.543028116226196,None,None,None,677.8337569923057,text_05,57,1,1,1,Reading_Baseline_main_no_click,None,braunen,,,,,OA04,001,no,698,1590,114,142,430,2024-08-28_08h57.55.309,EXNAT_3_fMRI_Psychopy2023.1.3,2023.1.3,74.94780479959974,
0,0,0,0,,,,,,,,,,,#88BA3F,742.4358811378479,48.23636317253113,None,None,None,693.0563357515013,text_05,58,1,1,1,Reading_Baseline_main_no_click,None,Tierchen,,,,,OA04,001,no,698,1590,114,142,430,2024-08-28_08h57.55.309,EXNAT_3_fMRI_Psychopy2023.1.3,2023.1.3,74.94780479959974,
0,0,0,0,,,,,,,,,,,#F989A2,743.1421809196472,48.942662954330444,None,None,None,639.4759220174874,text_05,59,1,1,1,Reading_Baseline_main_no_click,None,wenig,,,,,OA04,001,no,698,1590,114,142,430,2024-08-28_08h57.55.309,EXNAT_3_fMRI_Psychopy2023.1.3,2023.1.3,74.94780479959974,
0,0,0,0,,,,,,,,,,,#88BA3F,743.7950460910797,49.59552812576294,None,None,None,614.0375571676675,text_05,60,1,1,1,Reading_Baseline_main_no_click,None,her.,,,,,OA04,001,no,698,1590,114,142,430,2024-08-28_08h57.55.309,EXNAT_3_fMRI_Psychopy2023.1.3,2023.1.3,74.94780479959974,
0,0,0,0,,,,,,,,,,,#2AB7EF,744.4215331077576,50.222015142440796,None,None,None,614.0375571676675,text_05,61,1,1,1,Reading_Baseline_main_no_click,None,Doch,,,,,OA04,001,no,698,1590,114,142,430,2024-08-28_08h57.55.309,EXNAT_3_fMRI_Psychopy2023.1.3,2023.1.3,74.94780479959974,
0,0,0,0,,,,,,,,,,,#D292F3,745.0479500293732,50.8484320640564,None,None,None,614.0375571676675,text_05,62,1,1,1,Reading_Baseline_main_no_click,None,ihre,,,,,OA04,001,no,698,1590,114,142,430,2024-08-28_08h57.55.309,EXNAT_3_fMRI_Psychopy2023.1.3,2023.1.3,74.94780479959974,
0,0,0,0,,,,,,,,,,,#88BA3F,745.6753959655762,51.4758780002594,None,None,None,677.8337569923057,text_05,63,1,1,1,Reading_Baseline_main_no_click,None,winzige,,,,,OA04,001,no,698,1590,114,142,430,2024-08-28_08h57.55.309,EXNAT_3_fMRI_Psychopy2023.1.3,2023.1.3,74.94780479959974,
0,0,0,0,,,,,,,,,,,#88BA3F,746.3690159320831,52.16949796676636,None,None,None,729.3600610990143,text_05,64,1,1,1,Reading_Baseline_main_no_click,None,Körpergröße,,,,,OA04,001,no,698,1590,114,142,430,2024-08-28_08h57.55.309,EXNAT_3_fMRI_Psychopy2023.1.3,2023.1.3,74.94780479959974,
0,0,0,0,,,,,,,,,,,#F989A2,747.1013240814209,52.901806116104126,None,None,None,718.4947006013213,text_05,65,1,1,1,Reading_Baseline_main_no_click,None,fasziniert,,,,,OA04,001,no,698,1590,114,142,430,2024-08-28_08h57.55.309,EXNAT_3_fMRI_Psychopy2023.1.3,2023.1.3,74.94780479959974,
0,0,0,0,,,,,,,,,,,#2AB7EF,747.8339760303497,53.63445806503296,None,None,None,581.2418009081646,text_05,66,1,1,1,Reading_Baseline_main_no_click,None,die,,,,,OA04,001,no,698,1590,114,142,430,2024-08-28_08h57.55.309,EXNAT_3_fMRI_Psychopy2023.1.3,2023.1.3,74.94780479959974,
0,0,0,0,,,,,,,,,,,#F989A2,748.4221739768982,54.22265601158142,None,None,None,706.483601816329,text_05,67,1,1,1,Reading_Baseline_main_no_click,None,Forscher.,,,,,OA04,001,no,698,1590,114,142,430,2024-08-28_08h57.55.309,EXNAT_3_fMRI_Psychopy2023.1.3,2023.1.3,74.94780479959974,
0,0,0,0,,,,,,,,,,,#D292F3,749.1421060562134,54.942588090896606,None,None,None,614.0375571676675,text_05,68,1,1,1,Reading_Baseline_main_no_click,None,""Das,,,,,OA04,001,no,698,1590,114,142,430,2024-08-28_08h57.55.309,EXNAT_3_fMRI_Psychopy2023.1.3,2023.1.3,74.94780479959974,
0,0,0,0,,,,,,,,,,,#88BA3F,749.7679800987244,55.56846213340759,None,None,None,581.2418009081646,text_05,69,1,1,1,Reading_Baseline_main_no_click,None,ist,,,,,OA04,001,no,698,1590,114,142,430,2024-08-28_08h57.55.309,EXNAT_3_fMRI_Psychopy2023.1.3,2023.1.3,74.94780479959974,
0,0,0,0,,,,,,,,,,,#D292F3,750.3553819656372,56.155864000320435,None,None,None,677.8337569923057,text_05,70,1,1,1,Reading_Baseline_main_no_click,None,"nichts,",,,,,OA04,001,no,698,1590,114,142,430,2024-08-28_08h57.55.309,EXNAT_3_fMRI_Psychopy2023.1.3,2023.1.3,74.94780479959974,
0,0,0,0,,,,,,,,,,,#2AB7EF,751.0476720333099,56.848154067993164,None,None,None,570.0,text_05,71,1,1,1,Reading_Baseline_main_no_click,None,wo,,,,,OA04,001,no,698,1590,114,142,430,2024-08-28_08h57.55.309,EXNAT_3_fMRI_Psychopy2023.1.3,2023.1.3,74.94780479959974,
0,0,0,0,,,,,,,,,,,#F989A2,751.620619058609,57.421101093292236,None,None,None,581.2418009081646,text_05,72,1,1,1,Reading_Baseline_main_no_click,None,man,,,,,OA04,001,no,698,1590,114,142,430,2024-08-28_08h57.55.309,EXNAT_3_fMRI_Psychopy2023.1.3,2023.1.3,74.94780479959974,
0,0,0,0,,,,,,,,,,,#88BA3F,752.2073891162872,58.00787115097046,None,None,None,639.4759220174874,text_05,73,1,1,1,Reading_Baseline_main_no_click,None,viele,,,,,OA04,001,no,698,1590,114,142,430,2024-08-28_08h57.55.309,EXNAT_3_fMRI_Psychopy2023.1.3,2023.1.3,74.94780479959974,
0,0,0,0,,,,,,,,,,,#D292F3,752.8605320453644,58.66101408004761,None,None,None,756.8525355761394,text_05,74,1,1,1,Reading_Baseline_main_no_click,None,Untersuchungen,,,,,OA04,001,no,698,1590,114,142,430,2024-08-28_08h57.55.309,EXNAT_3_fMRI_Psychopy2023.1.3,2023.1.3,74.94780479959974,
0,0,0,0,,,,,,,,,,,#D292F3,753.6201441287994,59.420626163482666,None,None,None,660.2605794919982,text_05,75,1,1,1,Reading_Baseline_main_no_click,None,machen,,,,,OA04,001,no,698,1590,114,142,430,2024-08-28_08h57.55.309,EXNAT_3_fMRI_Psychopy2023.1.3,2023.1.3,74.94780479959974,
0,0,0,0,,,,,,,,,,,#2AB7EF,754.2865130901337,60.086995124816895,None,None,None,639.4759220174874,text_05,76,1,1,1,Reading_Baseline_main_no_click,None,muss.,,,,,OA04,001,no,698,1590,114,142,430,2024-08-28_08h57.55.309,EXNAT_3_fMRI_Psychopy2023.1.3,2023.1.3,74.94780479959974,
0,0,0,0,,,,,,,,,,,#F989A2,754.9396579265594,60.740139961242676,None,None,None,581.2418009081646,text_05,77,1,1,1,Reading_Baseline_main_no_click,None,Man,,,,,OA04,001,no,698,1590,114,142,430,2024-08-28_08h57.55.309,EXNAT_3_fMRI_Psychopy2023.1.3,2023.1.3,74.94780479959974,
0,0,0,0,,,,,,,,,,,#88BA3F,755.5266020298004,61.32708406448364,None,None,None,677.8337569923057,text_05,78,1,1,1,Reading_Baseline_main_no_click,None,erkennt,,,,,OA04,001,no,698,1590,114,142,430,2024-08-28_08h57.55.309,EXNAT_3_fMRI_Psychopy2023.1.3,2023.1.3,74.94780479959974,
0,0,0,0,,,,,,,,,,,#2AB7EF,756.2192940711975,62.01977610588074,None,None,None,614.0375571676675,text_05,79,1,1,1,Reading_Baseline_main_no_click,None,auch,,,,,OA04,001,no,698,1590,114,142,430,2024-08-28_08h57.55.309,EXNAT_3_fMRI_Psychopy2023.1.3,2023.1.3,74.94780479959974,
0,0,0,0,,,,,,,,,,,#D292F3,756.845948934555,62.64643096923828,None,None,None,581.2418009081646,text_05,80,1,1,1,Reading_Baseline_main_no_click,None,"so,",,,,,OA04,001,no,698,1590,114,142,430,2024-08-28_08h57.55.309,EXNAT_3_fMRI_Psychopy2023.1.3,2023.1.3,74.94780479959974,
0,0,0,0,,,,,,,,,,,#88BA3F,757.4320070743561,63.23248910903931,None,None,None,614.0375571676675,text_05,81,1,1,1,Reading_Baseline_main_no_click,None,dass,,,,,OA04,001,no,698,1590,114,142,430,2024-08-28_08h57.55.309,EXNAT_3_fMRI_Psychopy2023.1.3,2023.1.3,74.94780479959974,
0,0,0,0,,,,,,,,,,,#F989A2,758.0585119724274,63.858994007110596,None,None,None,581.2418009081646,text_05,82,1,1,1,Reading_Baseline_main_no_click,None,das,,,,,OA04,001,no,698,1590,114,142,430,2024-08-28_08h57.55.309,EXNAT_3_fMRI_Psychopy2023.1.3,2023.1.3,74.94780479959974,
0,0,0,0,,,,,,,,,,,#2AB7EF,758.6452419757843,64.44572401046753,None,None,None,639.4759220174874,text_05,83,1,1,1,Reading_Baseline_main_no_click,None,etwas,,,,,OA04,001,no,698,1590,114,142,430,2024-08-28_08h57.55.309,EXNAT_3_fMRI_Psychopy2023.1.3,2023.1.3,74.94780479959974,
0,0,0,0,,,,,,,,,,,#F989A2,759.2981491088867,65.09863114356995,None,None,None,639.4759220174874,text_05,84,1,1,1,Reading_Baseline_main_no_click,None,Neues,,,,,OA04,001,no,698,1590,114,142,430,2024-08-28_08h57.55.309,EXNAT_3_fMRI_Psychopy2023.1.3,2023.1.3,74.94780479959974,
0,0,0,0,,,,,,,,,,,#88BA3F,759.9513421058655,65.7518241405487,None,None,None,639.4759220174874,text_05,85,1,1,1,Reading_Baseline_main_no_click,None,"ist"",",,,,,OA04,001,no,698,1590,114,142,430,2024-08-28_08h57.55.309,EXNAT_3_fMRI_Psychopy2023.1.3,2023.1.3,74.94780479959974,
0,0,0,0,,,,,,,,,,,#2AB7EF,760.6044049263,66.40488696098328,None,None,None,614.0375571676675,text_05,86,1,1,1,Reading_Baseline_main_no_click,None,sagt,,,,,OA04,001,no,698,1590,114,142,430,2024-08-28_08h57.55.309,EXNAT_3_fMRI_Psychopy2023.1.3,2023.1.3,74.94780479959974,
0,0,0,0,,,,,,,,,,,#D292F3,761.2309880256653,67.03147006034851,None,None,None,660.2605794919982,text_05,87,1,1,1,Reading_Baseline_main_no_click,None,Miguel,,,,,OA04,001,no,698,1590,114,142,430,2024-08-28_08h57.55.309,EXNAT_3_fMRI_Psychopy2023.1.3,2023.1.3,74.94780479959974,
0,0,0,0,,,,,,,,,,,#2AB7EF,761.8973739147186,67.69785594940186,None,None,None,677.8337569923057,text_05,88,1,1,1,Reading_Baseline_main_no_click,None,Vences.,,,,,OA04,001,no,698,1590,114,142,430,2024-08-28_08h57.55.309,EXNAT_3_fMRI_Psychopy2023.1.3,2023.1.3,74.94780479959974,
0,0,0,0,,,,,,,,,,,#88BA3F,762.5901501178741,68.39063215255737,None,None,None,581.2418009081646,text_05,89,1,1,1,Reading_Baseline_main_no_click,None,Der,,,,,OA04,001,no,698,1590,114,142,430,2024-08-28_08h57.55.309,EXNAT_3_fMRI_Psychopy2023.1.3,2023.1.3,74.94780479959974,
0,0,0,0,,,,,,,,,,,#F989A2,763.1770260334015,68.97750806808472,None,None,None,677.8337569923057,text_05,90,1,1,1,Reading_Baseline_main_no_click,None,Zoologe,,,,,OA04,001,no,698,1590,114,142,430,2024-08-28_08h57.55.309,EXNAT_3_fMRI_Psychopy2023.1.3,2023.1.3,74.94780479959974,
0,0,0,0,,,,,,,,,,,#F989A2,763.8699309825897,69.67041301727295,None,None,None,706.483601816329,text_05,91,1,1,1,Reading_Baseline_main_no_click,None,berichtet,,,,,OA04,001,no,698,1590,114,142,430,2024-08-28_08h57.55.309,EXNAT_3_fMRI_Psychopy2023.1.3,2023.1.3,74.94780479959974,
0,0,0,0,,,,,,,,,,,#88BA3F,764.5894651412964,70.38994717597961,None,None,None,570.0,text_05,92,1,1,1,Reading_Baseline_main_no_click,None,in,,,,,OA04,001,no,698,1590,114,142,430,2024-08-28_08h57.55.309,EXNAT_3_fMRI_Psychopy2023.1.3,2023.1.3,74.94780479959974,
0,0,0,0,,,,,,,,,,,#2AB7EF,765.1629531383514,70.96343517303467,None,None,None,639.4759220174874,text_05,93,1,1,1,Reading_Baseline_main_no_click,None,einem,,,,,OA04,001,no,698,1590,114,142,430,2024-08-28_08h57.55.309,EXNAT_3_fMRI_Psychopy2023.1.3,2023.1.3,74.94780479959974,
0,0,0,0,,,,,,,,,,,#D292F3,765.8162140846252,71.61669611930847,None,None,None,729.3600610990143,text_05,94,1,1,1,Reading_Baseline_main_no_click,None,Fachartikel,,,,,OA04,001,no,698,1590,114,142,430,2024-08-28_08h57.55.309,EXNAT_3_fMRI_Psychopy2023.1.3,2023.1.3,74.94780479959974,
0,0,0,0,,,,,,,,,,,#88BA3F,766.548898935318,72.34938097000122,None,None,None,660.2605794919982,text_05,95,1,1,1,Reading_Baseline_main_no_click,None,gleich,,,,,OA04,001,no,698,1590,114,142,430,2024-08-28_08h57.55.309,EXNAT_3_fMRI_Psychopy2023.1.3,2023.1.3,74.94780479959974,
0,0,0,0,,,,,,,,,,,#D292F3,767.2153680324554,73.01585006713867,None,None,None,581.2418009081646,text_05,96,1,1,1,Reading_Baseline_main_no_click,None,von,,,,,OA04,001,no,698,1590,114,142,430,2024-08-28_08h57.55.309,EXNAT_3_fMRI_Psychopy2023.1.3,2023.1.3,74.94780479959974,
0,0,0,0,,,,,,,,,,,#2AB7EF,767.8018009662628,73.60228300094604,None,None,None,614.0375571676675,text_05,97,1,1,1,Reading_Baseline_main_no_click,None,vier,,,,,OA04,001,no,698,1590,114,142,430,2024-08-28_08h57.55.309,EXNAT_3_fMRI_Psychopy2023.1.3,2023.1.3,74.94780479959974,
0,0,0,0,,,,,,,,,,,#88BA3F,768.4281821250916,74.22866415977478,None,None,None,639.4759220174874,text_05,98,1,1,1,Reading_Baseline_main_no_click,None,neuen,,,,,OA04,001,no,698,1590,114,142,430,2024-08-28_08h57.55.309,EXNAT_3_fMRI_Psychopy2023.1.3,2023.1.3,74.94780479959974,
0,0,0,0,,,,,,,,,,,#F989A2,769.0817611217499,74.8822431564331,None,None,None,639.4759220174874,text_05,99,1,1,1,Reading_Baseline_main_no_click,None,Arten,,,,,OA04,001,no,698,1590,114,142,430,2024-08-28_08h57.55.309,EXNAT_3_fMRI_Psychopy2023.1.3,2023.1.3,74.94780479959974,
0,0,0,0,,,,,,,,,,,#2AB7EF,769.7346620559692,75.53514409065247,None,None,None,581.2418009081646,text_05,100,1,1,1,Reading_Baseline_main_no_click,None,von,,,,,OA04,001,no,698,1590,114,142,430,2024-08-28_08h57.55.309,EXNAT_3_fMRI_Psychopy2023.1.3,2023.1.3,74.94780479959974,
0,0,0,0,,,,,,,,,,,#D292F3,770.3218491077423,76.12233114242554,None,None,None,772.075114335335,text_05,101,1,1,1,Reading_Baseline_main_no_click,None,Mini-Chamäleons.,,,,,OA04,001,no,698,1590,114,142,430,2024-08-28_08h57.55.309,EXNAT_3_fMRI_Psychopy2023.1.3,2023.1.3,74.94780479959974,
0,0,0,0,,,,,,,,,,,#D292F3,771.1076171398163,76.90809917449951,None,None,None,614.0375571676675,text_05,102,1,1,1,Reading_Baseline_main_no_click,None,Laut,,,,,OA04,001,no,698,1590,114,142,430,2024-08-28_08h57.55.309,EXNAT_3_fMRI_Psychopy2023.1.3,2023.1.3,74.94780479959974,
0,0,0,0,,,,,,,,,,,#F989A2,771.733561038971,77.53404307365417,None,None,None,581.2418009081646,text_05,103,1,1,1,Reading_Baseline_main_no_click,None,den,,,,,OA04,001,no,698,1590,114,142,430,2024-08-28_08h57.55.309,EXNAT_3_fMRI_Psychopy2023.1.3,2023.1.3,74.94780479959974,
0,0,0,0,,,,,,,,,,,#88BA3F,772.320405960083,78.12088799476624,None,None,None,706.483601816329,text_05,104,1,1,1,Reading_Baseline_main_no_click,None,Forschern,,,,,OA04,001,no,698,1590,114,142,430,2024-08-28_08h57.55.309,EXNAT_3_fMRI_Psychopy2023.1.3,2023.1.3,74.94780479959974,
0,0,0,0,,,,,,,,,,,#F989A2,773.0400199890137,78.8405020236969,None,None,None,614.0375571676675,text_05,105,1,1,1,Reading_Baseline_main_no_click,None,weiß,,,,,OA04,001,no,698,1590,114,142,430,2024-08-28_08h57.55.309,EXNAT_3_fMRI_Psychopy2023.1.3,2023.1.3,74.94780479959974,
0,0,0,0,,,,,,,,,,,#2AB7EF,773.6661939620972,79.4666759967804,None,None,None,581.2418009081646,text_05,106,1,1,1,Reading_Baseline_main_no_click,None,man,,,,,OA04,001,no,698,1590,114,142,430,2024-08-28_08h57.55.309,EXNAT_3_fMRI_Psychopy2023.1.3,2023.1.3,74.94780479959974,
0,0,0,0,,,,,,,,,,,#F989A2,774.2530860900879,80.05356812477112,None,None,None,581.2418009081646,text_05,107,1,1,1,Reading_Baseline_main_no_click,None,von,,,,,OA04,001,no,698,1590,114,142,430,2024-08-28_08h57.55.309,EXNAT_3_fMRI_Psychopy2023.1.3,2023.1.3,74.94780479959974,
0,0,0,0,,,,,,,,,,,#D292F3,774.8391220569611,80.63960409164429,None,None,None,581.2418009081646,text_05,108,1,1,1,Reading_Baseline_main_no_click,None,den,,,,,OA04,001,no,698,1590,114,142,430,2024-08-28_08h57.55.309,EXNAT_3_fMRI_Psychopy2023.1.3,2023.1.3,74.94780479959974,
0,0,0,0,,,,,,,,,,,#88BA3F,775.4259469509125,81.2264289855957,None,None,None,660.2605794919982,text_05,109,1,1,1,Reading_Baseline_main_no_click,None,Tieren,,,,,OA04,001,no,698,1590,114,142,430,2024-08-28_08h57.55.309,EXNAT_3_fMRI_Psychopy2023.1.3,2023.1.3,74.94780479959974,
0,0,0,0,,,,,,,,,,,#2AB7EF,776.0922391414642,81.89272117614746,None,None,None,660.2605794919982,text_05,110,1,1,1,Reading_Baseline_main_no_click,None,jedoch,,,,,OA04,001,no,698,1590,114,142,430,2024-08-28_08h57.55.309,EXNAT_3_fMRI_Psychopy2023.1.3,2023.1.3,74.94780479959974,
0,0,0,0,,,,,,,,,,,#F989A2,776.7585639953613,82.55904603004456,None,None,None,614.0375571676675,text_05,111,1,1,1,Reading_Baseline_main_no_click,None,kaum,,,,,OA04,001,no,698,1590,114,142,430,2024-08-28_08h57.55.309,EXNAT_3_fMRI_Psychopy2023.1.3,2023.1.3,74.94780479959974,
0,0,0,0,,,,,,,,,,,#F989A2,777.3852190971375,83.18570113182068,None,None,None,639.4759220174874,text_05,112,1,1,1,Reading_Baseline_main_no_click,None,"mehr,",,,,,OA04,001,no,698,1590,114,142,430,2024-08-28_08h57.55.309,EXNAT_3_fMRI_Psychopy2023.1.3,2023.1.3,74.94780479959974,
0,0,0,0,,,,,,,,,,,#D292F3,778.0379660129547,83.83844804763794,None,None,None,581.2418009081646,text_05,113,1,1,1,Reading_Baseline_main_no_click,None,als,,,,,OA04,001,no,698,1590,114,142,430,2024-08-28_08h57.55.309,EXNAT_3_fMRI_Psychopy2023.1.3,2023.1.3,74.94780479959974,
0,0,0,0,,,,,,,,,,,#88BA3F,778.6244640350342,84.42494606971741,None,None,None,614.0375571676675,text_05,114,1,1,1,Reading_Baseline_main_no_click,None,dass,,,,,OA04,001,no,698,1590,114,142,430,2024-08-28_08h57.55.309,EXNAT_3_fMRI_Psychopy2023.1.3,2023.1.3,74.94780479959974,
0,0,0,0,,,,,,,,,,,#F989A2,779.2508800029755,85.05136203765869,None,None,None,570.0,text_05,115,1,1,1,Reading_Baseline_main_no_click,None,es,,,,,OA04,001,no,698,1590,114,142,430,2024-08-28_08h57.55.309,EXNAT_3_fMRI_Psychopy2023.1.3,2023.1.3,74.94780479959974,
0,0,0,0,,,,,,,,,,,#2AB7EF,779.8242089748383,85.62469100952148,None,None,None,581.2418009081646,text_05,116,1,1,1,Reading_Baseline_main_no_click,None,sie,,,,,OA04,001,no,698,1590,114,142,430,2024-08-28_08h57.55.309,EXNAT_3_fMRI_Psychopy2023.1.3,2023.1.3,74.94780479959974,
0,0,0,0,,,,,,,,,,,#2AB7EF,780.4106600284576,86.21114206314087,None,None,None,639.4759220174874,text_05,117,1,1,1,Reading_Baseline_main_no_click,None,gibt.,,,,,OA04,001,no,698,1590,114,142,430,2024-08-28_08h57.55.309,EXNAT_3_fMRI_Psychopy2023.1.3,2023.1.3,74.94780479959974,
0,0,0,0,,,,,,,,,,,#D292F3,781.0637290477753,86.8642110824585,None,None,None,570.0,text_05,118,1,1,1,Reading_Baseline_main_no_click,None,Zu,,,,,OA04,001,no,698,1590,114,142,430,2024-08-28_08h57.55.309,EXNAT_3_fMRI_Psychopy2023.1.3,2023.1.3,74.94780479959974,
0,0,0,0,,,,,,,,,,,#88BA3F,781.636843919754,87.43732595443726,None,None,None,639.4759220174874,text_05,119,1,1,1,Reading_Baseline_main_no_click,None,ihrer,,,,,OA04,001,no,698,1590,114,142,430,2024-08-28_08h57.55.309,EXNAT_3_fMRI_Psychopy2023.1.3,2023.1.3,74.94780479959974,
0,0,0,0,,,,,,,,,,,#D292F3,782.2904949188232,88.09097695350647,None,None,None,729.3600610990143,text_05,120,1,1,1,Reading_Baseline_main_no_click,None,Lebensweise,,,,,OA04,001,no,698,1590,114,142,430,2024-08-28_08h57.55.309,EXNAT_3_fMRI_Psychopy2023.1.3,2023.1.3,74.94780479959974,
0,0,0,0,,,,,,,,,,,#D292F3,783.0229730606079,88.82345509529114,None,None,None,581.2418009081646,text_05,121,1,1,1,Reading_Baseline_main_no_click,None,ist,,,,,OA04,001,no,698,1590,114,142,430,2024-08-28_08h57.55.309,EXNAT_3_fMRI_Psychopy2023.1.3,2023.1.3,74.94780479959974,
0,0,0,0,,,,,,,,,,,#2AB7EF,783.6093509197235,89.40983295440674,None,None,None,581.2418009081646,text_05,122,1,1,1,Reading_Baseline_main_no_click,None,nur,,,,,OA04,001,no,698,1590,114,142,430,2024-08-28_08h57.55.309,EXNAT_3_fMRI_Psychopy2023.1.3,2023.1.3,74.94780479959974,
0,0,0,0,,,,,,,,,,,#F989A2,784.1958920955658,89.99637413024902,None,None,None,614.0375571676675,text_05,123,1,1,1,Reading_Baseline_main_no_click,None,sehr,,,,,OA04,001,no,698,1590,114,142,430,2024-08-28_08h57.55.309,EXNAT_3_fMRI_Psychopy2023.1.3,2023.1.3,74.94780479959974,
0,0,0,0,,,,,,,,,,,#88BA3F,784.8227689266205,90.62325096130371,None,None,None,639.4759220174874,text_05,124,1,1,1,Reading_Baseline_main_no_click,None,wenig,,,,,OA04,001,no,698,1590,114,142,430,2024-08-28_08h57.55.309,EXNAT_3_fMRI_Psychopy2023.1.3,2023.1.3,74.94780479959974,
0,0,0,0,,,,,,,,,,,#F989A2,785.4755971431732,91.27607917785645,None,None,None,693.0563357515013,text_05,125,1,1,1,Reading_Baseline_main_no_click,None,bekannt.,,,,,OA04,001,no,698,1590,114,142,430,2024-08-28_08h57.55.309,EXNAT_3_fMRI_Psychopy2023.1.3,2023.1.3,74.94780479959974,
0,0,0,0,,,,,,,,,,,#D292F3,786.1822850704193,91.98276710510254,None,None,None,693.0563357515013,text_05,126,1,1,1,Reading_Baseline_main_no_click,None,Tagsüber,,,,,OA04,001,no,698,1590,114,142,430,2024-08-28_08h57.55.309,EXNAT_3_fMRI_Psychopy2023.1.3,2023.1.3,74.94780479959974,
0,0,0,0,,,,,,,,,,,#2AB7EF,786.8883481025696,92.68883013725281,None,None,None,639.4759220174874,text_05,127,1,1,1,Reading_Baseline_main_no_click,None,leben,,,,,OA04,001,no,698,1590,114,142,430,2024-08-28_08h57.55.309,EXNAT_3_fMRI_Psychopy2023.1.3,2023.1.3,74.94780479959974,
0,0,0,0,,,,,,,,,,,#F989A2,787.5413029193878,93.34178495407104,None,None,None,581.2418009081646,text_05,128,1,1,1,Reading_Baseline_main_no_click,None,die,,,,,OA04,001,no,698,1590,114,142,430,2024-08-28_08h57.55.309,EXNAT_3_fMRI_Psychopy2023.1.3,2023.1.3,74.94780479959974,
0,0,0,0,,,,,,,,,,,#D292F3,788.1279129981995,93.92839503288269,None,None,None,677.8337569923057,text_05,129,1,1,1,Reading_Baseline_main_no_click,None,kleinen,,,,,OA04,001,no,698,1590,114,142,430,2024-08-28_08h57.55.309,EXNAT_3_fMRI_Psychopy2023.1.3,2023.1.3,74.94780479959974,
0,0,0,0,,,,,,,,,,,#D292F3,788.8214490413666,94.6219310760498,None,None,None,718.4947006013213,text_05,130,1,1,1,Reading_Baseline_main_no_click,None,Chamäleons,,,,,OA04,001,no,698,1590,114,142,430,2024-08-28_08h57.55.309,EXNAT_3_fMRI_Psychopy2023.1.3,2023.1.3,74.94780479959974,
0,0,0,0,,,,,,,,,,,#88BA3F,789.5539309978485,95.35441303253174,None,None,None,570.0,text_05,131,1,1,1,Reading_Baseline_main_no_click,None,am,,,,,OA04,001,no,698,1590,114,142,430,2024-08-28_08h57.55.309,EXNAT_3_fMRI_Psychopy2023.1.3,2023.1.3,74.94780479959974,
0,0,0,0,,,,,,,,,,,#2AB7EF,790.1274590492249,95.92794108390808,None,None,None,660.2605794919982,text_05,132,1,1,1,Reading_Baseline_main_no_click,None,Boden.,,,,,OA04,001,no,698,1590,114,142,430,2024-08-28_08h57.55.309,EXNAT_3_fMRI_Psychopy2023.1.3,2023.1.3,74.94780479959974,
0,0,0,0,,,,,,,,,,,#88BA3F,790.7941100597382,96.59459209442139,None,None,None,614.0375571676675,text_05,133,1,1,1,Reading_Baseline_main_no_click,None,Wenn,,,,,OA04,001,no,698,1590,114,142,430,2024-08-28_08h57.55.309,EXNAT_3_fMRI_Psychopy2023.1.3,2023.1.3,74.94780479959974,
0,0,0,0,,,,,,,,,,,#2AB7EF,791.4203591346741,97.2208411693573,None,None,None,677.8337569923057,text_05,134,1,1,1,Reading_Baseline_main_no_click,None,möglich,,,,,OA04,001,no,698,1590,114,142,430,2024-08-28_08h57.55.309,EXNAT_3_fMRI_Psychopy2023.1.3,2023.1.3,74.94780479959974,
0,0,0,0,,,,,,,,,,,#2AB7EF,792.1134691238403,97.91395115852356,None,None,None,706.483601816329,text_05,135,1,1,1,Reading_Baseline_main_no_click,None,verbergen,,,,,OA04,001,no,698,1590,114,142,430,2024-08-28_08h57.55.309,EXNAT_3_fMRI_Psychopy2023.1.3,2023.1.3,74.94780479959974,
0,0,0,0,,,,,,,,,,,#F989A2,792.8327860832214,98.63326811790466,None,None,None,581.2418009081646,text_05,136,1,1,1,Reading_Baseline_main_no_click,None,sie,,,,,OA04,001,no,698,1590,114,142,430,2024-08-28_08h57.55.309,EXNAT_3_fMRI_Psychopy2023.1.3,2023.1.3,74.94780479959974,
0,0,0,0,,,,,,,,,,,#88BA3F,793.4192800521851,99.21976208686829,None,None,None,614.0375571676675,text_05,137,1,1,1,Reading_Baseline_main_no_click,None,sich,,,,,OA04,001,no,698,1590,114,142,430,2024-08-28_08h57.55.309,EXNAT_3_fMRI_Psychopy2023.1.3,2023.1.3,74.94780479959974,
0,0,0,0,,,,,,,,,,,#2AB7EF,794.0458519458771,99.8463339805603,None,None,None,639.4759220174874,text_05,138,1,1,1,Reading_Baseline_main_no_click,None,dabei,,,,,OA04,001,no,698,1590,114,142,430,2024-08-28_08h57.55.309,EXNAT_3_fMRI_Psychopy2023.1.3,2023.1.3,74.94780479959974,
0,0,0,0,,,,,,,,,,,#D292F3,794.6991240978241,100.49960613250732,None,None,None,639.4759220174874,text_05,139,1,1,1,Reading_Baseline_main_no_click,None,unter,,,,,OA04,001,no,698,1590,114,142,430,2024-08-28_08h57.55.309,EXNAT_3_fMRI_Psychopy2023.1.3,2023.1.3,74.94780479959974,
0,0,0,0,,,,,,,,,,,#88BA3F,795.3520309925079,101.15251302719116,None,None,None,639.4759220174874,text_05,140,1,1,1,Reading_Baseline_main_no_click,None,einer,,,,,OA04,001,no,698,1590,114,142,430,2024-08-28_08h57.55.309,EXNAT_3_fMRI_Psychopy2023.1.3,2023.1.3,74.94780479959974,
0,0,0,0,,,,,,,,,,,#F989A2,796.0053789615631,101.80586099624634,None,None,None,677.8337569923057,text_05,141,1,1,1,Reading_Baseline_main_no_click,None,Schicht,,,,,OA04,001,no,698,1590,114,142,430,2024-08-28_08h57.55.309,EXNAT_3_fMRI_Psychopy2023.1.3,2023.1.3,74.94780479959974,
0,0,0,0,,,,,,,,,,,#D292F3,796.6984241008759,102.49890613555908,None,None,None,639.4759220174874,text_05,142,1,1,1,Reading_Baseline_main_no_click,None,Laub.,,,,,OA04,001,no,698,1590,114,142,430,2024-08-28_08h57.55.309,EXNAT_3_fMRI_Psychopy2023.1.3,2023.1.3,74.94780479959974,
0,0,0,0,,,,,,,,,,,#F989A2,797.3513650894165,103.15184712409973,None,None,None,660.2605794919982,text_05,143,1,1,1,Reading_Baseline_main_no_click,None,Nachts,,,,,OA04,001,no,698,1590,114,142,430,2024-08-28_08h57.55.309,EXNAT_3_fMRI_Psychopy2023.1.3,2023.1.3,74.94780479959974,
0,0,0,0,,,,,,,,,,,#2AB7EF,798.0176730155945,103.81815505027771,None,None,None,614.0375571676675,text_05,144,1,1,1,Reading_Baseline_main_no_click,None,geht,,,,,OA04,001,no,698,1590,114,142,430,2024-08-28_08h57.55.309,EXNAT_3_fMRI_Psychopy2023.1.3,2023.1.3,74.94780479959974,
0,0,0,0,,,,,,,,,,,#88BA3F,798.6440780162811,104.44456005096436,None,None,None,570.0,text_05,145,1,1,1,Reading_Baseline_main_no_click,None,es,,,,,OA04,001,no,698,1590,114,142,430,2024-08-28_08h57.55.309,EXNAT_3_fMRI_Psychopy2023.1.3,2023.1.3,74.94780479959974,
0,0,0,0,,,,,,,,,,,#F989A2,799.2172629833221,105.01774501800537,None,None,None,614.0375571676675,text_05,146,1,1,1,Reading_Baseline_main_no_click,None,dann,,,,,OA04,001,no,698,1590,114,142,430,2024-08-28_08h57.55.309,EXNAT_3_fMRI_Psychopy2023.1.3,2023.1.3,74.94780479959974,
0,0,0,0,,,,,,,,,,,#F989A2,799.843866109848,105.64434814453125,None,None,None,581.2418009081646,text_05,147,1,1,1,Reading_Baseline_main_no_click,None,auf,,,,,OA04,001,no,698,1590,114,142,430,2024-08-28_08h57.55.309,EXNAT_3_fMRI_Psychopy2023.1.3,2023.1.3,74.94780479959974,
0,0,0,0,,,,,,,,,,,#2AB7EF,800.4305210113525,106.23100304603577,None,None,None,677.8337569923057,text_05,148,1,1,1,Reading_Baseline_main_no_click,None,niedrig,,,,,OA04,001,no,698,1590,114,142,430,2024-08-28_08h57.55.309,EXNAT_3_fMRI_Psychopy2023.1.3,2023.1.3,74.94780479959974,
0,0,0,0,,,,,,,,,,,#D292F3,801.1236100196838,106.92409205436707,None,None,None,693.0563357515013,text_05,149,1,1,1,Reading_Baseline_main_no_click,None,gelegene,,,,,OA04,001,no,698,1590,114,142,430,2024-08-28_08h57.55.309,EXNAT_3_fMRI_Psychopy2023.1.3,2023.1.3,74.94780479959974,
0,0,0,0,,,,,,,,,,,#D292F3,801.8304541110992,107.63093614578247,None,None,None,614.0375571676675,text_05,150,1,1,1,Reading_Baseline_main_no_click,None,Äste,,,,,OA04,001,no,698,1590,114,142,430,2024-08-28_08h57.55.309,EXNAT_3_fMRI_Psychopy2023.1.3,2023.1.3,74.94780479959974,
0,0,0,0,,,,,,,,,,,#2AB7EF,802.4564669132233,108.2569489479065,None,None,None,581.2418009081646,text_05,151,1,1,1,Reading_Baseline_main_no_click,None,zum,,,,,OA04,001,no,698,1590,114,142,430,2024-08-28_08h57.55.309,EXNAT_3_fMRI_Psychopy2023.1.3,2023.1.3,74.94780479959974,
0,0,0,0,,,,,,,,,,,#D292F3,803.043219089508,108.84370112419128,None,None,None,706.483601816329,text_05,152,1,1,1,Reading_Baseline_main_no_click,None,Schlafen.,,,,,OA04,001,no,698,1590,114,142,430,2024-08-28_08h57.55.309,EXNAT_3_fMRI_Psychopy2023.1.3,2023.1.3,74.94780479959974,
0,0,0,0,,,,,,,,,,,#88BA3F,803.7626819610596,109.5631639957428,None,None,None,677.8337569923057,text_05,153,1,1,1,Reading_Baseline_main_no_click,None,Direkte,,,,,OA04,001,no,698,1590,114,142,430,2024-08-28_08h57.55.309,EXNAT_3_fMRI_Psychopy2023.1.3,2023.1.3,74.94780479959974,
0,0,0,0,,,,,,,,,,,#D292F3,804.4564621448517,110.25694417953491,None,None,None,729.3600610990143,text_05,154,1,1,1,Reading_Baseline_main_no_click,None,Fressfeinde,,,,,OA04,001,no,698,1590,114,142,430,2024-08-28_08h57.55.309,EXNAT_3_fMRI_Psychopy2023.1.3,2023.1.3,74.94780479959974,
0,0,0,0,,,,,,,,,,,#2AB7EF,805.188777923584,110.98925995826721,None,None,None,639.4759220174874,text_05,155,1,1,1,Reading_Baseline_main_no_click,None,haben,,,,,OA04,001,no,698,1590,114,142,430,2024-08-28_08h57.55.309,EXNAT_3_fMRI_Psychopy2023.1.3,2023.1.3,74.94780479959974,
0,0,0,0,,,,,,,,,,,#F989A2,805.841737985611,111.64222002029419,None,None,None,581.2418009081646,text_05,156,1,1,1,Reading_Baseline_main_no_click,None,die,,,,,OA04,001,no,698,1590,114,142,430,2024-08-28_08h57.55.309,EXNAT_3_fMRI_Psychopy2023.1.3,2023.1.3,74.94780479959974,
0,0,0,0,,,,,,,,,,,#2AB7EF,806.428652048111,112.22913408279419,None,None,None,693.0563357515013,text_05,157,1,1,1,Reading_Baseline_main_no_click,None,Tierchen,,,,,OA04,001,no,698,1590,114,142,430,2024-08-28_08h57.55.309,EXNAT_3_fMRI_Psychopy2023.1.3,2023.1.3,74.94780479959974,
0,0,0,0,,,,,,,,,,,#88BA3F,807.1348519325256,112.93533396720886,None,None,None,718.4947006013213,text_05,158,1,1,1,Reading_Baseline_main_no_click,None,allerdings,,,,,OA04,001,no,698,1590,114,142,430,2024-08-28_08h57.55.309,EXNAT_3_fMRI_Psychopy2023.1.3,2023.1.3,74.94780479959974,
0,0,0,0,,,,,,,,,,,#F989A2,807.86789894104,113.66838097572327,None,None,None,614.0375571676675,text_05,159,1,1,1,Reading_Baseline_main_no_click,None,wohl,,,,,OA04,001,no,698,1590,114,142,430,2024-08-28_08h57.55.309,EXNAT_3_fMRI_Psychopy2023.1.3,2023.1.3,74.94780479959974,
0,0,0,0,,,,,,,,,,,#88BA3F,808.4941689968109,114.29465103149414,None,None,None,614.0375571676675,text_05,160,1,1,1,Reading_Baseline_main_no_click,None,eher,,,,,OA04,001,no,698,1590,114,142,430,2024-08-28_08h57.55.309,EXNAT_3_fMRI_Psychopy2023.1.3,2023.1.3,74.94780479959974,
0,0,0,0,,,,,,,,,,,#F989A2,809.1207299232483,114.92121195793152,None,None,None,660.2605794919982,text_05,161,1,1,1,Reading_Baseline_main_no_click,None,nicht.,,,,,OA04,001,no,698,1590,114,142,430,2024-08-28_08h57.55.309,EXNAT_3_fMRI_Psychopy2023.1.3,2023.1.3,74.94780479959974,
0,0,0,0,,,,,,,,,,,#2AB7EF,809.7874500751495,115.58793210983276,None,None,None,570.0,text_05,162,1,1,1,Reading_Baseline_main_no_click,None,Zu,,,,,OA04,001,no,698,1590,114,142,430,2024-08-28_08h57.55.309,EXNAT_3_fMRI_Psychopy2023.1.3,2023.1.3,74.94780479959974,
0,0,0,0,,,,,,,,,,,#D292F3,810.3602111339569,116.16069316864014,None,None,None,639.4759220174874,text_05,163,1,1,1,Reading_Baseline_main_no_click,None,ihrem,,,,,OA04,001,no,698,1590,114,142,430,2024-08-28_08h57.55.309,EXNAT_3_fMRI_Psychopy2023.1.3,2023.1.3,74.94780479959974,
0,0,0,0,,,,,,,,,,,#2AB7EF,811.0137360095978,116.814218044281,None,None,None,660.2605794919982,text_05,164,1,1,1,Reading_Baseline_main_no_click,None,"Glück,",,,,,OA04,001,no,698,1590,114,142,430,2024-08-28_08h57.55.309,EXNAT_3_fMRI_Psychopy2023.1.3,2023.1.3,74.94780479959974,
0,0,0,0,,,,,,,,,,,#F989A2,811.6794760227203,117.47995805740356,None,None,None,570.0,text_05,165,1,1,1,Reading_Baseline_main_no_click,None,so,,,,,OA04,001,no,698,1590,114,142,430,2024-08-28_08h57.55.309,EXNAT_3_fMRI_Psychopy2023.1.3,2023.1.3,74.94780479959974,
0,0,0,0,,,,,,,,,,,#2AB7EF,812.2525889873505,118.05307102203369,None,None,None,581.2418009081646,text_05,166,1,1,1,Reading_Baseline_main_no_click,None,die,,,,,OA04,001,no,698,1590,114,142,430,2024-08-28_08h57.55.309,EXNAT_3_fMRI_Psychopy2023.1.3,2023.1.3,74.94780479959974,
0,0,0,0,,,,,,,,,,,#D292F3,812.839476108551,118.63995814323425,None,None,None,706.483601816329,text_05,167,1,1,1,Reading_Baseline_main_no_click,None,Forscher.,,,,,OA04,001,no,698,1590,114,142,430,2024-08-28_08h57.55.309,EXNAT_3_fMRI_Psychopy2023.1.3,2023.1.3,74.94780479959974,
0,0,0,0,,,,,,,,,,,#88BA3F,813.5590069293976,119.35948896408081,None,None,None,581.2418009081646,text_05,168,1,1,1,Reading_Baseline_main_no_click,None,Auf,,,,,OA04,001,no,698,1590,114,142,430,2024-08-28_08h57.55.309,EXNAT_3_fMRI_Psychopy2023.1.3,2023.1.3,74.94780479959974,
0,0,0,0,,,,,,,,,,,#D292F3,814.1453969478607,119.94587898254395,None,None,None,677.8337569923057,text_05,169,1,1,1,Reading_Baseline_main_no_click,None,solchen,,,,,OA04,001,no,698,1590,114,142,430,2024-08-28_08h57.55.309,EXNAT_3_fMRI_Psychopy2023.1.3,2023.1.3,74.94780479959974,
0,0,0,0,,,,,,,,,,,#D292F3,814.8387720584869,120.63925409317017,None,None,None,677.8337569923057,text_05,170,1,1,1,Reading_Baseline_main_no_click,None,kleinen,,,,,OA04,001,no,698,1590,114,142,430,2024-08-28_08h57.55.309,EXNAT_3_fMRI_Psychopy2023.1.3,2023.1.3,74.94780479959974,
0,0,0,0,,,,,,,,,,,#2AB7EF,815.5317571163177,121.33223915100098,None,None,None,660.2605794919982,text_05,171,1,1,1,Reading_Baseline_main_no_click,None,Inseln,,,,,OA04,001,no,698,1590,114,142,430,2024-08-28_08h57.55.309,EXNAT_3_fMRI_Psychopy2023.1.3,2023.1.3,74.94780479959974,
0,0,0,0,,,,,,,,,,,#F989A2,816.197968006134,121.99845004081726,None,None,None,614.0375571676675,text_05,172,1,1,1,Reading_Baseline_main_no_click,None,kann,,,,,OA04,001,no,698,1590,114,142,430,2024-08-28_08h57.55.309,EXNAT_3_fMRI_Psychopy2023.1.3,2023.1.3,74.94780479959974,
0,0,0,0,,,,,,,,,,,#2AB7EF,816.8243579864502,122.62484002113342,None,None,None,581.2418009081646,text_05,173,1,1,1,Reading_Baseline_main_no_click,None,die,,,,,OA04,001,no,698,1590,114,142,430,2024-08-28_08h57.55.309,EXNAT_3_fMRI_Psychopy2023.1.3,2023.1.3,74.94780479959974,
0,0,0,0,,,,,,,,,,,#F989A2,817.4112770557404,123.21175909042358,None,None,None,718.4947006013213,text_05,174,1,1,1,Reading_Baseline_main_no_click,None,Konkurrenz,,,,,OA04,001,no,698,1590,114,142,430,2024-08-28_08h57.55.309,EXNAT_3_fMRI_Psychopy2023.1.3,2023.1.3,74.94780479959974,
0,0,0,0,,,,,,,,,,,#88BA3F,818.1442079544067,123.94468998908997,None,None,None,693.0563357515013,text_05,175,1,1,1,Reading_Baseline_main_no_click,None,zwischen,,,,,OA04,001,no,698,1590,114,142,430,2024-08-28_08h57.55.309,EXNAT_3_fMRI_Psychopy2023.1.3,2023.1.3,74.94780479959974,
0,0,0,0,,,,,,,,,,,#88BA3F,818.8502669334412,124.65074896812439,None,None,None,581.2418009081646,text_05,176,1,1,1,Reading_Baseline_main_no_click,None,den,,,,,OA04,001,no,698,1590,114,142,430,2024-08-28_08h57.55.309,EXNAT_3_fMRI_Psychopy2023.1.3,2023.1.3,74.94780479959974,
0,0,0,0,,,,,,,,,,,#D292F3,819.437173128128,125.23765516281128,None,None,None,706.483601816329,text_05,177,1,1,1,Reading_Baseline_main_no_click,None,Tierarten,,,,,OA04,001,no,698,1590,114,142,430,2024-08-28_08h57.55.309,EXNAT_3_fMRI_Psychopy2023.1.3,2023.1.3,74.94780479959974,
0,0,0,0,,,,,,,,,,,#F989A2,820.1568329334259,125.95731496810913,None,None,None,677.8337569923057,text_05,178,1,1,1,Reading_Baseline_main_no_click,None,schnell,,,,,OA04,001,no,698,1590,114,142,430,2024-08-28_08h57.55.309,EXNAT_3_fMRI_Psychopy2023.1.3,2023.1.3,74.94780479959974,
0,0,0,0,,,,,,,,,,,#88BA3F,820.849592924118,126.65007495880127,None,None,None,614.0375571676675,text_05,179,1,1,1,Reading_Baseline_main_no_click,None,sehr,,,,,OA04,001,no,698,1590,114,142,430,2024-08-28_08h57.55.309,EXNAT_3_fMRI_Psychopy2023.1.3,2023.1.3,74.94780479959974,
0,0,0,0,,,,,,,,,,,#2AB7EF,821.4761950969696,127.27667713165283,None,None,None,614.0375571676675,text_05,180,1,1,1,Reading_Baseline_main_no_click,None,groß,,,,,OA04,001,no,698,1590,114,142,430,2024-08-28_08h57.55.309,EXNAT_3_fMRI_Psychopy2023.1.3,2023.1.3,74.94780479959974,
0,0,0,0,,,,,,,,,,,#88BA3F,822.1027600765228,127.90324211120605,None,None,None,677.8337569923057,text_05,181,1,1,1,Reading_Baseline_main_no_click,None,werden.,,,,,OA04,001,no,698,1590,114,142,430,2024-08-28_08h57.55.309,EXNAT_3_fMRI_Psychopy2023.1.3,2023.1.3,74.94780479959974,
0,0,0,0,,,,,,,,,,,#D292F3,822.7957339286804,128.59621596336365,None,None,None,614.0375571676675,text_05,182,1,1,1,Reading_Baseline_main_no_click,None,Auch,,,,,OA04,001,no,698,1590,114,142,430,2024-08-28_08h57.55.309,EXNAT_3_fMRI_Psychopy2023.1.3,2023.1.3,74.94780479959974,
0,0,0,0,,,,,,,,,,,#2AB7EF,823.4219710826874,129.2224531173706,None,None,None,581.2418009081646,text_05,183,1,1,1,Reading_Baseline_main_no_click,None,die,,,,,OA04,001,no,698,1590,114,142,430,2024-08-28_08h57.55.309,EXNAT_3_fMRI_Psychopy2023.1.3,2023.1.3,74.94780479959974,
0,0,0,0,,,,,,,,,,,#F989A2,824.0086569786072,129.8091390132904,None,None,None,677.8337569923057,text_05,184,1,1,1,Reading_Baseline_main_no_click,None,anderen,,,,,OA04,001,no,698,1590,114,142,430,2024-08-28_08h57.55.309,EXNAT_3_fMRI_Psychopy2023.1.3,2023.1.3,74.94780479959974,
0,0,0,0,,,,,,,,,,,#D292F3,824.7017059326172,130.50218796730042,None,None,None,639.4759220174874,text_05,185,1,1,1,Reading_Baseline_main_no_click,None,neuen,,,,,OA04,001,no,698,1590,114,142,430,2024-08-28_08h57.55.309,EXNAT_3_fMRI_Psychopy2023.1.3,2023.1.3,74.94780479959974,
0,0,0,0,,,,,,,,,,,#2AB7EF,825.3555669784546,131.15604901313782,None,None,None,764.717722925652,text_05,186,1,1,1,Reading_Baseline_main_no_click,None,Chamäleon-Arten,,,,,OA04,001,no,698,1590,114,142,430,2024-08-28_08h57.55.309,EXNAT_3_fMRI_Psychopy2023.1.3,2023.1.3,74.94780479959974,
0,0,0,0,,,,,,,,,,,#88BA3F,826.1279439926147,131.92842602729797,None,None,None,706.483601816329,text_05,187,1,1,1,Reading_Baseline_main_no_click,None,besiedeln,,,,,OA04,001,no,698,1590,114,142,430,2024-08-28_08h57.55.309,EXNAT_3_fMRI_Psychopy2023.1.3,2023.1.3,74.94780479959974,
0,0,0,0,,,,,,,,,,,#D292F3,826.8474819660187,132.6479640007019,None,None,None,581.2418009081646,text_05,188,1,1,1,Reading_Baseline_main_no_click,None,nur,,,,,OA04,001,no,698,1590,114,142,430,2024-08-28_08h57.55.309,EXNAT_3_fMRI_Psychopy2023.1.3,2023.1.3,74.94780479959974,
0,0,0,0,,,,,,,,,,,#88BA3F,827.4340260028839,133.23450803756714,None,None,None,660.2605794919982,text_05,189,1,1,1,Reading_Baseline_main_no_click,None,kleine,,,,,OA04,001,no,698,1590,114,142,430,2024-08-28_08h57.55.309,EXNAT_3_fMRI_Psychopy2023.1.3,2023.1.3,74.94780479959974,
0,0,0,0,,,,,,,,,,,#2AB7EF,828.1006810665131,133.9011631011963,None,None,None,677.8337569923057,text_05,190,1,1,1,Reading_Baseline_main_no_click,None,Gebiete,,,,,OA04,001,no,698,1590,114,142,430,2024-08-28_08h57.55.309,EXNAT_3_fMRI_Psychopy2023.1.3,2023.1.3,74.94780479959974,
0,0,0,0,,,,,,,,,,,#F989A2,828.7935080528259,134.59399008750916,None,None,None,581.2418009081646,text_05,191,1,1,1,Reading_Baseline_main_no_click,None,auf,,,,,OA04,001,no,698,1590,114,142,430,2024-08-28_08h57.55.309,EXNAT_3_fMRI_Psychopy2023.1.3,2023.1.3,74.94780479959974,
0,0,0,0,,,,,,,,,,,#88BA3F,829.3803040981293,135.1807861328125,None,None,None,729.3600610990143,text_05,192,1,1,1,Reading_Baseline_main_no_click,None,Madagaskar.,,,,,OA04,001,no,698,1590,114,142,430,2024-08-28_08h57.55.309,EXNAT_3_fMRI_Psychopy2023.1.3,2023.1.3,74.94780479959974,
0,0,0,0,,,,,,,,,,,#2AB7EF,830.1130709648132,135.91355299949646,None,None,None,639.4759220174874,text_05,193,1,1,1,Reading_Baseline_main_no_click,None,Durch,,,,,OA04,001,no,698,1590,114,142,430,2024-08-28_08h57.55.309,EXNAT_3_fMRI_Psychopy2023.1.3,2023.1.3,74.94780479959974,
0,0,0,0,,,,,,,,,,,#D292F3,830.7663700580597,136.56685209274292,None,None,None,581.2418009081646,text_05,194,1,1,1,Reading_Baseline_main_no_click,None,die,,,,,OA04,001,no,698,1590,114,142,430,2024-08-28_08h57.55.309,EXNAT_3_fMRI_Psychopy2023.1.3,2023.1.3,74.94780479959974,
0,0,0,0,,,,,,,,,,,#F989A2,831.3529851436615,137.15346717834473,None,None,None,718.4947006013213,text_05,195,1,1,1,Reading_Baseline_main_no_click,None,Zerstörung,,,,,OA04,001,no,698,1590,114,142,430,2024-08-28_08h57.55.309,EXNAT_3_fMRI_Psychopy2023.1.3,2023.1.3,74.94780479959974,
0,0,0,0,,,,,,,,,,,#88BA3F,832.0857300758362,137.8862121105194,None,None,None,639.4759220174874,text_05,196,1,1,1,Reading_Baseline_main_no_click,None,ihres,,,,,OA04,001,no,698,1590,114,142,430,2024-08-28_08h57.55.309,EXNAT_3_fMRI_Psychopy2023.1.3,2023.1.3,74.94780479959974,
0,0,0,0,,,,,,,,,,,#2AB7EF,832.7391579151154,138.53963994979858,None,None,None,729.3600610990143,text_05,197,1,1,1,Reading_Baseline_main_no_click,None,Lebensraums,,,,,OA04,001,no,698,1590,114,142,430,2024-08-28_08h57.55.309,EXNAT_3_fMRI_Psychopy2023.1.3,2023.1.3,74.94780479959974,
0,0,0,0,,,,,,,,,,,#D292F3,833.4718351364136,139.2723171710968,None,None,None,614.0375571676675,text_05,198,1,1,1,Reading_Baseline_main_no_click,None,sind,,,,,OA04,001,no,698,1590,114,142,430,2024-08-28_08h57.55.309,EXNAT_3_fMRI_Psychopy2023.1.3,2023.1.3,74.94780479959974,
0,0,0,0,,,,,,,,,,,#F989A2,834.0982611179352,139.8987431526184,None,None,None,581.2418009081646,text_05,199,1,1,1,Reading_Baseline_main_no_click,None,sie,,,,,OA04,001,no,698,1590,114,142,430,2024-08-28_08h57.55.309,EXNAT_3_fMRI_Psychopy2023.1.3,2023.1.3,74.94780479959974,
0,0,0,0,,,,,,,,,,,#F989A2,834.6849660873413,140.48544812202454,None,None,None,660.2605794919982,text_05,200,1,1,1,Reading_Baseline_main_no_click,None,jedoch,,,,,OA04,001,no,698,1590,114,142,430,2024-08-28_08h57.55.309,EXNAT_3_fMRI_Psychopy2023.1.3,2023.1.3,74.94780479959974,
0,0,0,0,,,,,,,,,,,#88BA3F,835.3514280319214,141.15191006660461,None,None,None,706.483601816329,text_05,201,1,1,1,Reading_Baseline_main_no_click,None,besonders,,,,,OA04,001,no,698,1590,114,142,430,2024-08-28_08h57.55.309,EXNAT_3_fMRI_Psychopy2023.1.3,2023.1.3,74.94780479959974,
0,0,0,0,,,,,,,,,,,#2AB7EF,836.071357011795,141.87183904647827,None,None,None,693.0563357515013,text_05,202,1,1,1,Reading_Baseline_main_no_click,None,bedroht.,,,,,OA04,001,no,698,1590,114,142,430,2024-08-28_08h57.55.309,EXNAT_3_fMRI_Psychopy2023.1.3,2023.1.3,74.94780479959974,
0,0,0,0,,,,,,,,,,,#88BA3F,836.778018951416,142.57850098609924,None,None,None,614.0375571676675,text_05,203,1,1,1,Reading_Baseline_main_no_click,None,Rund,,,,,OA04,001,no,698,1590,114,142,430,2024-08-28_08h57.55.309,EXNAT_3_fMRI_Psychopy2023.1.3,2023.1.3,74.94780479959974,
0,0,0,0,,,,,,,,,,,#D292F3,837.4042451381683,143.20472717285156,None,None,None,570.0,text_05,204,1,1,1,Reading_Baseline_main_no_click,None,40,,,,,OA04,001,no,698,1590,114,142,430,2024-08-28_08h57.55.309,EXNAT_3_fMRI_Psychopy2023.1.3,2023.1.3,74.94780479959974,
0,0,0,0,,,,,,,,,,,#88BA3F,837.9778001308441,143.77828216552734,None,None,None,677.8337569923057,text_05,205,1,1,1,Reading_Baseline_main_no_click,None,Prozent,,,,,OA04,001,no,698,1590,114,142,430,2024-08-28_08h57.55.309,EXNAT_3_fMRI_Psychopy2023.1.3,2023.1.3,74.94780479959974,
0,0,0,0,,,,,,,,,,,#88BA3F,838.6699759960175,144.47045803070068,None,None,None,581.2418009081646,text_05,206,1,1,1,Reading_Baseline_main_no_click,None,der,,,,,OA04,001,no,698,1590,114,142,430,2024-08-28_08h57.55.309,EXNAT_3_fMRI_Psychopy2023.1.3,2023.1.3,74.94780479959974,
0,0,0,0,,,,,,,,,,,#F989A2,839.2571980953217,145.05768013000488,None,None,None,764.717722925652,text_05,207,1,1,1,Reading_Baseline_main_no_click,None,Reptilien-Arten,,,,,OA04,001,no,698,1590,114,142,430,2024-08-28_08h57.55.309,EXNAT_3_fMRI_Psychopy2023.1.3,2023.1.3,74.94780479959974,
0,0,0,0,,,,,,,,,,,#2AB7EF,840.0296969413757,145.83017897605896,None,None,None,581.2418009081646,text_05,208,1,1,1,Reading_Baseline_main_no_click,None,auf,,,,,OA04,001,no,698,1590,114,142,430,2024-08-28_08h57.55.309,EXNAT_3_fMRI_Psychopy2023.1.3,2023.1.3,74.94780479959974,
0,0,0,0,,,,,,,,,,,#88BA3F,840.6163809299469,146.41686296463013,None,None,None,718.4947006013213,text_05,209,1,1,1,Reading_Baseline_main_no_click,None,Madagaskar,,,,,OA04,001,no,698,1590,114,142,430,2024-08-28_08h57.55.309,EXNAT_3_fMRI_Psychopy2023.1.3,2023.1.3,74.94780479959974,
0,0,0,0,,,,,,,,,,,#D292F3,841.3491721153259,147.14965415000916,None,None,None,660.2605794919982,text_05,210,1,1,1,Reading_Baseline_main_no_click,None,gelten,,,,,OA04,001,no,698,1590,114,142,430,2024-08-28_08h57.55.309,EXNAT_3_fMRI_Psychopy2023.1.3,2023.1.3,74.94780479959974,
0,0,0,0,,,,,,,,,,,#D292F3,842.0160229206085,147.81650495529175,None,None,None,739.2793580758321,text_05,211,1,1,1,Reading_Baseline_main_no_click,None,mittlerweile,,,,,OA04,001,no,698,1590,114,142,430,2024-08-28_08h57.55.309,EXNAT_3_fMRI_Psychopy2023.1.3,2023.1.3,74.94780479959974,
0,0,0,0,,,,,,,,,,,#F989A2,842.7618479728699,148.5623300075531,None,None,None,581.2418009081646,text_05,212,1,1,1,Reading_Baseline_main_no_click,None,als,,,,,OA04,001,no,698,1590,114,142,430,2024-08-28_08h57.55.309,EXNAT_3_fMRI_Psychopy2023.1.3,2023.1.3,74.94780479959974,
0,0,0,0,,,,,,,,,,,#88BA3F,843.3487839698792,149.14926600456238,None,None,None,718.4947006013213,text_05,213,1,1,1,Reading_Baseline_main_no_click,None,gefährdet.,,,,,OA04,001,no,698,1590,114,142,430,2024-08-28_08h57.55.309,EXNAT_3_fMRI_Psychopy2023.1.3,2023.1.3,74.94780479959974,
0,0,0,0,,,,,,,,,,,#F989A2,844.081423997879,149.88190603256226,None,None,None,581.2418009081646,text_05,214,1,1,1,Reading_Baseline_main_no_click,None,Die,,,,,OA04,001,no,698,1590,114,142,430,2024-08-28_08h57.55.309,EXNAT_3_fMRI_Psychopy2023.1.3,2023.1.3,74.94780479959974,
0,0,0,0,,,,,,,,,,,#D292F3,844.6684770584106,150.46895909309387,None,None,None,693.0563357515013,text_05,215,1,1,1,Reading_Baseline_main_no_click,None,Forscher,,,,,OA04,001,no,698,1590,114,142,430,2024-08-28_08h57.55.309,EXNAT_3_fMRI_Psychopy2023.1.3,2023.1.3,74.94780479959974,
0,0,0,0,,,,,,,,,,,#2AB7EF,845.3748140335083,151.17529606819153,None,None,None,729.3600610990143,text_05,216,1,1,1,Reading_Baseline_main_no_click,None,"befürchten,",,,,,OA04,001,no,698,1590,114,142,430,2024-08-28_08h57.55.309,EXNAT_3_fMRI_Psychopy2023.1.3,2023.1.3,74.94780479959974,
0,0,0,0,,,,,,,,,,,#88BA3F,846.1074011325836,151.90788316726685,None,None,None,614.0375571676675,text_05,217,1,1,1,Reading_Baseline_main_no_click,None,dass,,,,,OA04,001,no,698,1590,114,142,430,2024-08-28_08h57.55.309,EXNAT_3_fMRI_Psychopy2023.1.3,2023.1.3,74.94780479959974,
0,0,0,0,,,,,,,,,,,#F989A2,846.7338061332703,152.5342881679535,None,None,None,614.0375571676675,text_05,218,1,1,1,Reading_Baseline_main_no_click,None,auch,,,,,OA04,001,no,698,1590,114,142,430,2024-08-28_08h57.55.309,EXNAT_3_fMRI_Psychopy2023.1.3,2023.1.3,74.94780479959974,
0,0,0,0,,,,,,,,,,,#88BA3F,847.3604481220245,153.16093015670776,None,None,None,706.483601816329,text_05,219,1,1,1,Reading_Baseline_main_no_click,None,Brookesia,,,,,OA04,001,no,698,1590,114,142,430,2024-08-28_08h57.55.309,EXNAT_3_fMRI_Psychopy2023.1.3,2023.1.3,74.94780479959974,
0,0,0,0,,,,,,,,,,,#88BA3F,848.0803980827332,153.88088011741638,None,None,None,693.0563357515013,text_05,220,1,1,1,Reading_Baseline_main_no_click,None,"tristis,",,,,,OA04,001,no,698,1590,114,142,430,2024-08-28_08h57.55.309,EXNAT_3_fMRI_Psychopy2023.1.3,2023.1.3,74.94780479959974,
0,0,0,0,,,,,,,,,,,#D292F3,848.7865200042725,154.5870020389557,None,None,None,614.0375571676675,text_05,221,1,1,1,Reading_Baseline_main_no_click,None,eine,,,,,OA04,001,no,698,1590,114,142,430,2024-08-28_08h57.55.309,EXNAT_3_fMRI_Psychopy2023.1.3,2023.1.3,74.94780479959974,
0,0,0,0,,,,,,,,,,,#2AB7EF,849.4131951332092,155.21367716789246,None,None,None,677.8337569923057,text_05,222,1,1,1,Reading_Baseline_main_no_click,None,weitere,,,,,OA04,001,no,698,1590,114,142,430,2024-08-28_08h57.55.309,EXNAT_3_fMRI_Psychopy2023.1.3,2023.1.3,74.94780479959974,
0,0,0,0,,,,,,,,,,,#88BA3F,850.1062440872192,155.90672612190247,None,None,None,581.2418009081646,text_05,223,1,1,1,Reading_Baseline_main_no_click,None,neu,,,,,OA04,001,no,698,1590,114,142,430,2024-08-28_08h57.55.309,EXNAT_3_fMRI_Psychopy2023.1.3,2023.1.3,74.94780479959974,
0,0,0,0,,,,,,,,,,,#2AB7EF,850.692656993866,156.4931390285492,None,None,None,706.483601816329,text_05,224,1,1,1,Reading_Baseline_main_no_click,None,entdeckte,,,,,OA04,001,no,698,1590,114,142,430,2024-08-28_08h57.55.309,EXNAT_3_fMRI_Psychopy2023.1.3,2023.1.3,74.94780479959974,
0,0,0,0,,,,,,,,,,,#D292F3,851.4124429225922,157.2129249572754,None,None,None,614.0375571676675,text_05,225,1,1,1,Reading_Baseline_main_no_click,None,"Art,",,,,,OA04,001,no,698,1590,114,142,430,2024-08-28_08h57.55.309,EXNAT_3_fMRI_Psychopy2023.1.3,2023.1.3,74.94780479959974,
0,0,0,0,,,,,,,,,,,#F989A2,852.0387470722198,157.83922910690308,None,None,None,639.4759220174874,text_05,226,1,1,1,Reading_Baseline_main_no_click,None,einer,,,,,OA04,001,no,698,1590,114,142,430,2024-08-28_08h57.55.309,EXNAT_3_fMRI_Psychopy2023.1.3,2023.1.3,74.94780479959974,
0,0,0,0,,,,,,,,,,,#2AB7EF,852.6921761035919,158.49265813827515,None,None,None,718.4947006013213,text_05,227,1,1,1,Reading_Baseline_main_no_click,None,ungewissen,,,,,OA04,001,no,698,1590,114,142,430,2024-08-28_08h57.55.309,EXNAT_3_fMRI_Psychopy2023.1.3,2023.1.3,74.94780479959974,
0,0,0,0,,,,,,,,,,,#88BA3F,853.4251480102539,159.22563004493713,None,None,None,677.8337569923057,text_05,228,1,1,1,Reading_Baseline_main_no_click,None,Zukunft,,,,,OA04,001,no,698,1590,114,142,430,2024-08-28_08h57.55.309,EXNAT_3_fMRI_Psychopy2023.1.3,2023.1.3,74.94780479959974,
0,0,0,0,,,,,,,,,,,#D292F3,854.1181070804596,159.91858911514282,None,None,None,693.0563357515013,text_05,229,1,1,1,Reading_Baseline_main_no_click,None,entgegen,,,,,OA04,001,no,698,1590,114,142,430,2024-08-28_08h57.55.309,EXNAT_3_fMRI_Psychopy2023.1.3,2023.1.3,74.94780479959974,
0,0,0,0,,,,,,,,,,,#88BA3F,854.8246700763702,160.62515211105347,None,None,None,660.2605794919982,text_05,230,1,1,1,Reading_Baseline_main_no_click,None,sieht.,,,,,OA04,001,no,698,1590,114,142,430,2024-08-28_08h57.55.309,EXNAT_3_fMRI_Psychopy2023.1.3,2023.1.3,74.94780479959974,
0,0,0,0,,,,,,,,,,,#D292F3,855.4908981323242,161.29138016700745,None,None,None,614.0375571676675,text_05,231,1,1,1,Reading_Baseline_main_no_click,None,Zwar,,,,,OA04,001,no,698,1590,114,142,430,2024-08-28_08h57.55.309,EXNAT_3_fMRI_Psychopy2023.1.3,2023.1.3,74.94780479959974,
0,0,0,0,,,,,,,,,,,#88BA3F,856.1171419620514,161.91762399673462,None,None,None,581.2418009081646,text_05,232,1,1,1,Reading_Baseline_main_no_click,None,ist,,,,,OA04,001,no,698,1590,114,142,430,2024-08-28_08h57.55.309,EXNAT_3_fMRI_Psychopy2023.1.3,2023.1.3,74.94780479959974,
0,0,0,0,,,,,,,,,,,#2AB7EF,856.7036371231079,162.50411915779114,None,None,None,581.2418009081646,text_05,233,1,1,1,Reading_Baseline_main_no_click,None,der,,,,,OA04,001,no,698,1590,114,142,430,2024-08-28_08h57.55.309,EXNAT_3_fMRI_Psychopy2023.1.3,2023.1.3,74.94780479959974,
0,0,0,0,,,,,,,,,,,#F989A2,857.2905139923096,163.0909960269928,None,None,None,718.4947006013213,text_05,234,1,1,1,Reading_Baseline_main_no_click,None,Lebensraum,,,,,OA04,001,no,698,1590,114,142,430,2024-08-28_08h57.55.309,EXNAT_3_fMRI_Psychopy2023.1.3,2023.1.3,74.94780479959974,
0,0,0,0,,,,,,,,,,,#D292F3,858.023106098175,163.82358813285828,None,None,None,581.2418009081646,text_05,235,1,1,1,Reading_Baseline_main_no_click,None,des,,,,,OA04,001,no,698,1590,114,142,430,2024-08-28_08h57.55.309,EXNAT_3_fMRI_Psychopy2023.1.3,2023.1.3,74.94780479959974,
0,0,0,0,,,,,,,,,,,#D292F3,858.6101219654083,164.41060400009155,None,None,None,718.4947006013213,text_05,236,1,1,1,Reading_Baseline_main_no_click,None,Chamäleons,,,,,OA04,001,no,698,1590,114,142,430,2024-08-28_08h57.55.309,EXNAT_3_fMRI_Psychopy2023.1.3,2023.1.3,74.94780479959974,
0,0,0,0,,,,,,,,,,,#F989A2,859.3430440425873,165.1435260772705,None,None,None,581.2418009081646,text_05,237,1,1,1,Reading_Baseline_main_no_click,None,vor,,,,,OA04,001,no,698,1590,114,142,430,2024-08-28_08h57.55.309,EXNAT_3_fMRI_Psychopy2023.1.3,2023.1.3,74.94780479959974,
0,0,0,0,,,,,,,,,,,#88BA3F,859.9294729232788,165.72995495796204,None,None,None,677.8337569923057,text_05,238,1,1,1,Reading_Baseline_main_no_click,None,wenigen,,,,,OA04,001,no,698,1590,114,142,430,2024-08-28_08h57.55.309,EXNAT_3_fMRI_Psychopy2023.1.3,2023.1.3,74.94780479959974,
0,0,0,0,,,,,,,,,,,#F989A2,860.6229429244995,166.42342495918274,None,None,None,660.2605794919982,text_05,239,1,1,1,Reading_Baseline_main_no_click,None,Jahren,,,,,OA04,001,no,698,1590,114,142,430,2024-08-28_08h57.55.309,EXNAT_3_fMRI_Psychopy2023.1.3,2023.1.3,74.94780479959974,
0,0,0,0,,,,,,,,,,,#2AB7EF,861.288773059845,167.0892550945282,None,None,None,639.4759220174874,text_05,240,1,1,1,Reading_Baseline_main_no_click,None,unter,,,,,OA04,001,no,698,1590,114,142,430,2024-08-28_08h57.55.309,EXNAT_3_fMRI_Psychopy2023.1.3,2023.1.3,74.94780479959974,
0,0,0,0,,,,,,,,,,,#D292F3,861.9421179294586,167.74259996414185,None,None,None,660.2605794919982,text_05,241,1,1,1,Reading_Baseline_main_no_click,None,Schutz,,,,,OA04,001,no,698,1590,114,142,430,2024-08-28_08h57.55.309,EXNAT_3_fMRI_Psychopy2023.1.3,2023.1.3,74.94780479959974,
0,0,0,0,,,,,,,,,,,#D292F3,862.6084589958191,168.40894103050232,None,None,None,693.0563357515013,text_05,242,1,1,1,Reading_Baseline_main_no_click,None,gestellt,,,,,OA04,001,no,698,1590,114,142,430,2024-08-28_08h57.55.309,EXNAT_3_fMRI_Psychopy2023.1.3,2023.1.3,74.94780479959974,
0,0,0,0,,,,,,,,,,,#F989A2,863.3150610923767,169.11554312705994,None,None,None,677.8337569923057,text_05,243,1,1,1,Reading_Baseline_main_no_click,None,"worden,",,,,,OA04,001,no,698,1590,114,142,430,2024-08-28_08h57.55.309,EXNAT_3_fMRI_Psychopy2023.1.3,2023.1.3,74.94780479959974,
0,0,0,0,,,,,,,,,,,#88BA3F,864.0079929828644,169.8084750175476,None,None,None,614.0375571676675,text_05,244,1,1,1,Reading_Baseline_main_no_click,None,doch,,,,,OA04,001,no,698,1590,114,142,430,2024-08-28_08h57.55.309,EXNAT_3_fMRI_Psychopy2023.1.3,2023.1.3,74.94780479959974,
0,0,0,0,,,,,,,,,,,#2AB7EF,864.6342179775238,170.43470001220703,None,None,None,581.2418009081646,text_05,245,1,1,1,Reading_Baseline_main_no_click,None,die,,,,,OA04,001,no,698,1590,114,142,430,2024-08-28_08h57.55.309,EXNAT_3_fMRI_Psychopy2023.1.3,2023.1.3,74.94780479959974,
0,0,0,0,,,,,,,,,,,#F989A2,865.221116065979,171.02159810066223,None,None,None,706.483601816329,text_05,246,1,1,1,Reading_Baseline_main_no_click,None,Abholzung,,,,,OA04,001,no,698,1590,114,142,430,2024-08-28_08h57.55.309,EXNAT_3_fMRI_Psychopy2023.1.3,2023.1.3,74.94780479959974,
0,0,0,0,,,,,,,,,,,#88BA3F,865.940376996994,171.74085903167725,None,None,None,581.2418009081646,text_05,247,1,1,1,Reading_Baseline_main_no_click,None,des,,,,,OA04,001,no,698,1590,114,142,430,2024-08-28_08h57.55.309,EXNAT_3_fMRI_Psychopy2023.1.3,2023.1.3,74.94780479959974,
0,0,0,0,,,,,,,,,,,#2AB7EF,866.5273261070251,172.32780814170837,None,None,None,677.8337569923057,text_05,248,1,1,1,Reading_Baseline_main_no_click,None,Gebiets,,,,,OA04,001,no,698,1590,114,142,430,2024-08-28_08h57.55.309,EXNAT_3_fMRI_Psychopy2023.1.3,2023.1.3,74.94780479959974,
0,0,0,0,,,,,,,,,,,#F989A2,867.2199060916901,173.0203881263733,None,None,None,581.2418009081646,text_05,249,1,1,1,Reading_Baseline_main_no_click,None,hat,,,,,OA04,001,no,698,1590,114,142,430,2024-08-28_08h57.55.309,EXNAT_3_fMRI_Psychopy2023.1.3,2023.1.3,74.94780479959974,
0,0,0,0,,,,,,,,,,,#88BA3F,867.8065929412842,173.6070749759674,None,None,None,677.8337569923057,text_05,250,1,1,1,Reading_Baseline_main_no_click,None,seitdem,,,,,OA04,001,no,698,1590,114,142,430,2024-08-28_08h57.55.309,EXNAT_3_fMRI_Psychopy2023.1.3,2023.1.3,74.94780479959974,
0,0,0,0,,,,,,,,,,,#F989A2,868.4997251033783,174.30020713806152,None,None,None,660.2605794919982,text_05,251,1,1,1,Reading_Baseline_main_no_click,None,leider,,,,,OA04,001,no,698,1590,114,142,430,2024-08-28_08h57.55.309,EXNAT_3_fMRI_Psychopy2023.1.3,2023.1.3,74.94780479959974,
0,0,0,0,,,,,,,,,,,#D292F3,869.1662509441376,174.9667329788208,None,None,None,639.4759220174874,text_05,252,1,1,1,Reading_Baseline_main_no_click,None,sogar,,,,,OA04,001,no,698,1590,114,142,430,2024-08-28_08h57.55.309,EXNAT_3_fMRI_Psychopy2023.1.3,2023.1.3,74.94780479959974,
0,0,0,0,,,,,,,,,,,#2AB7EF,869.8190801143646,175.61956214904785,None,None,None,614.0375571676675,text_05,253,1,1,1,Reading_Baseline_main_no_click,None,noch,,,,,OA04,001,no,698,1590,114,142,430,2024-08-28_08h57.55.309,EXNAT_3_fMRI_Psychopy2023.1.3,2023.1.3,74.94780479959974,
0,0,0,0,,,,,,,,,,,#88BA3F,870.4459691047668,176.24645113945007,None,None,None,729.3600610990143,text_05,254,1,1,1,Reading_Baseline_main_no_click,None,zugenommen.,,,,,OA04,001,no,698,1590,114,142,430,2024-08-28_08h57.55.309,EXNAT_3_fMRI_Psychopy2023.1.3,2023.1.3,74.94780479959974,
0,0,0,0,,,,,,,,,,,#F989A2,871.1788079738617,176.97929000854492,None,None,None,581.2418009081646,text_05,255,1,1,1,Reading_Baseline_main_no_click,None,Mit,,,,,OA04,001,no,698,1590,114,142,430,2024-08-28_08h57.55.309,EXNAT_3_fMRI_Psychopy2023.1.3,2023.1.3,74.94780479959974,
0,0,0,0,,,,,,,,,,,#2AB7EF,871.7649319171906,177.56541395187378,None,None,None,581.2418009081646,text_05,256,1,1,1,Reading_Baseline_main_no_click,None,der,,,,,OA04,001,no,698,1590,114,142,430,2024-08-28_08h57.55.309,EXNAT_3_fMRI_Psychopy2023.1.3,2023.1.3,74.94780479959974,
0,0,0,0,,,,,,,,,,,#88BA3F,872.3515639305115,178.1520459651947,None,None,None,614.0375571676675,text_05,257,1,1,1,Reading_Baseline_main_no_click,None,Wahl,,,,,OA04,001,no,698,1590,114,142,430,2024-08-28_08h57.55.309,EXNAT_3_fMRI_Psychopy2023.1.3,2023.1.3,74.94780479959974,
0,0,0,0,,,,,,,,,,,#F989A2,872.9779469966888,178.77842903137207,None,None,None,581.2418009081646,text_05,258,1,1,1,Reading_Baseline_main_no_click,None,der,,,,,OA04,001,no,698,1590,114,142,430,2024-08-28_08h57.55.309,EXNAT_3_fMRI_Psychopy2023.1.3,2023.1.3,74.94780479959974,
0,0,0,0,,,,,,,,,,,#2AB7EF,873.5645000934601,179.3649821281433,None,None,None,639.4759220174874,text_05,259,1,1,1,Reading_Baseline_main_no_click,None,Namen,,,,,OA04,001,no,698,1590,114,142,430,2024-08-28_08h57.55.309,EXNAT_3_fMRI_Psychopy2023.1.3,2023.1.3,74.94780479959974,
0,0,0,0,,,,,,,,,,,#F989A2,874.2176289558411,180.0181109905243,None,None,None,581.2418009081646,text_05,260,1,1,1,Reading_Baseline_main_no_click,None,der,,,,,OA04,001,no,698,1590,114,142,430,2024-08-28_08h57.55.309,EXNAT_3_fMRI_Psychopy2023.1.3,2023.1.3,74.94780479959974,
0,0,0,0,,,,,,,,,,,#D292F3,874.8038880825043,180.6043701171875,None,None,None,581.2418009081646,text_05,261,1,1,1,Reading_Baseline_main_no_click,None,neu,,,,,OA04,001,no,698,1590,114,142,430,2024-08-28_08h57.55.309,EXNAT_3_fMRI_Psychopy2023.1.3,2023.1.3,74.94780479959974,
0,0,0,0,,,,,,,,,,,#2AB7EF,875.3906059265137,181.1910879611969,None,None,None,718.4947006013213,text_05,262,1,1,1,Reading_Baseline_main_no_click,None,entdeckten,,,,,OA04,001,no,698,1590,114,142,430,2024-08-28_08h57.55.309,EXNAT_3_fMRI_Psychopy2023.1.3,2023.1.3,74.94780479959974,
0,0,0,0,,,,,,,,,,,#88BA3F,876.1242430210114,181.92472505569458,None,None,None,764.717722925652,text_05,263,1,1,1,Reading_Baseline_main_no_click,None,Chamäleon-Arten,,,,,OA04,001,no,698,1590,114,142,430,2024-08-28_08h57.55.309,EXNAT_3_fMRI_Psychopy2023.1.3,2023.1.3,74.94780479959974,
0,0,0,0,,,,,,,,,,,#F989A2,876.8969259262085,182.69740796089172,None,None,None,660.2605794919982,text_05,264,1,1,1,Reading_Baseline_main_no_click,None,wollen,,,,,OA04,001,no,698,1590,114,142,430,2024-08-28_08h57.55.309,EXNAT_3_fMRI_Psychopy2023.1.3,2023.1.3,74.94780479959974,
0,0,0,0,,,,,,,,,,,#D292F3,877.563010931015,183.36349296569824,None,None,None,581.2418009081646,text_05,265,1,1,1,Reading_Baseline_main_no_click,None,sie,,,,,OA04,001,no,698,1590,114,142,430,2024-08-28_08h57.55.309,EXNAT_3_fMRI_Psychopy2023.1.3,2023.1.3,74.94780479959974,
0,0,0,0,,,,,,,,,,,#F989A2,878.1494269371033,183.9499089717865,None,None,None,581.2418009081646,text_05,266,1,1,1,Reading_Baseline_main_no_click,None,auf,,,,,OA04,001,no,698,1590,114,142,430,2024-08-28_08h57.55.309,EXNAT_3_fMRI_Psychopy2023.1.3,2023.1.3,74.94780479959974,
0,0,0,0,,,,,,,,,,,#88BA3F,878.7361249923706,184.53660702705383,None,None,None,581.2418009081646,text_05,267,1,1,1,Reading_Baseline_main_no_click,None,die,,,,,OA04,001,no,698,1590,114,142,430,2024-08-28_08h57.55.309,EXNAT_3_fMRI_Psychopy2023.1.3,2023.1.3,74.94780479959974,
0,0,0,0,,,,,,,,,,,#2AB7EF,879.3232929706573,185.12377500534058,None,None,None,639.4759220174874,text_05,268,1,1,1,Reading_Baseline_main_no_click,None,große,,,,,OA04,001,no,698,1590,114,142,430,2024-08-28_08h57.55.309,EXNAT_3_fMRI_Psychopy2023.1.3,2023.1.3,74.94780479959974,
0,0,0,0,,,,,,,,,,,#88BA3F,879.9761710166931,185.77665305137634,None,None,None,660.2605794919982,text_05,269,1,1,1,Reading_Baseline_main_no_click,None,Gefahr,,,,,OA04,001,no,698,1590,114,142,430,2024-08-28_08h57.55.309,EXNAT_3_fMRI_Psychopy2023.1.3,2023.1.3,74.94780479959974,
0,0,0,0,,,,,,,,,,,#F989A2,880.6424119472504,186.4428939819336,None,None,None,718.4947006013213,text_05,270,1,1,1,Reading_Baseline_main_no_click,None,"hinweisen,",,,,,OA04,001,no,698,1590,114,142,430,2024-08-28_08h57.55.309,EXNAT_3_fMRI_Psychopy2023.1.3,2023.1.3,74.94780479959974,
0,0,0,0,,,,,,,,,,,#D292F3,881.3748941421509,187.1753761768341,None,None,None,581.2418009081646,text_05,271,1,1,1,Reading_Baseline_main_no_click,None,die,,,,,OA04,001,no,698,1590,114,142,430,2024-08-28_08h57.55.309,EXNAT_3_fMRI_Psychopy2023.1.3,2023.1.3,74.94780479959974,
0,0,0,0,,,,,,,,,,,#2AB7EF,881.9614169597626,187.7618989944458,None,None,None,581.2418009081646,text_05,272,1,1,1,Reading_Baseline_main_no_click,None,den,,,,,OA04,001,no,698,1590,114,142,430,2024-08-28_08h57.55.309,EXNAT_3_fMRI_Psychopy2023.1.3,2023.1.3,74.94780479959974,
0,0,0,0,,,,,,,,,,,#88BA3F,882.5483839511871,188.34886598587036,None,None,None,718.4947006013213,text_05,273,1,1,1,Reading_Baseline_main_no_click,None,Chamäleons,,,,,OA04,001,no,698,1590,114,142,430,2024-08-28_08h57.55.309,EXNAT_3_fMRI_Psychopy2023.1.3,2023.1.3,74.94780479959974,
0,0,0,0,,,,,,,,,,,#D292F3,883.2810781002045,189.0815601348877,None,None,None,660.2605794919982,text_05,274,1,1,1,Reading_Baseline_main_no_click,None,droht.,,,,,OA04,001,no,698,1590,114,142,430,2024-08-28_08h57.55.309,EXNAT_3_fMRI_Psychopy2023.1.3,2023.1.3,74.94780479959974,
0,0,0,0,,,,,,,,,,,#2AB7EF,883.9473600387573,189.74784207344055,None,None,None,581.2418009081646,text_05,275,1,1,1,Reading_Baseline_main_no_click,None,Die,,,,,OA04,001,no,698,1590,114,142,430,2024-08-28_08h57.55.309,EXNAT_3_fMRI_Psychopy2023.1.3,2023.1.3,74.94780479959974,
0,0,0,0,,,,,,,,,,,#F989A2,884.5343079566956,190.33478999137878,None,None,None,706.483601816329,text_05,276,1,1,1,Reading_Baseline_main_no_click,None,Botschaft,,,,,OA04,001,no,698,1590,114,142,430,2024-08-28_08h57.55.309,EXNAT_3_fMRI_Psychopy2023.1.3,2023.1.3,74.94780479959974,
0,0,0,0,,,,,,,,,,,#D292F3,885.2538261413574,191.05430817604065,None,None,None,660.2605794919982,text_05,277,1,1,1,Reading_Baseline_main_no_click,None,hinter,,,,,OA04,001,no,698,1590,114,142,430,2024-08-28_08h57.55.309,EXNAT_3_fMRI_Psychopy2023.1.3,2023.1.3,74.94780479959974,
0,0,0,0,,,,,,,,,,,#2AB7EF,885.9200010299683,191.7204830646515,None,None,None,581.2418009081646,text_05,278,1,1,1,Reading_Baseline_main_no_click,None,den,,,,,OA04,001,no,698,1590,114,142,430,2024-08-28_08h57.55.309,EXNAT_3_fMRI_Psychopy2023.1.3,2023.1.3,74.94780479959974,
0,0,0,0,,,,,,,,,,,#D292F3,886.5065550804138,192.30703711509705,None,None,None,639.4759220174874,text_05,279,1,1,1,Reading_Baseline_main_no_click,None,Namen,,,,,OA04,001,no,698,1590,114,142,430,2024-08-28_08h57.55.309,EXNAT_3_fMRI_Psychopy2023.1.3,2023.1.3,74.94780479959974,
0,0,0,0,,,,,,,,,,,#F989A2,887.159775018692,192.96025705337524,None,None,None,706.483601816329,text_05,280,1,1,1,Reading_Baseline_main_no_click,None,Brookesia,,,,,OA04,001,no,698,1590,114,142,430,2024-08-28_08h57.55.309,EXNAT_3_fMRI_Psychopy2023.1.3,2023.1.3,74.94780479959974,
0,0,0,0,,,,,,,,,,,#88BA3F,887.8797969818115,193.68027901649475,None,None,None,706.483601816329,text_05,281,1,1,1,Reading_Baseline_main_no_click,None,desperata,,,,,OA04,001,no,698,1590,114,142,430,2024-08-28_08h57.55.309,EXNAT_3_fMRI_Psychopy2023.1.3,2023.1.3,74.94780479959974,
0,0,0,0,,,,,,,,,,,#88BA3F,888.5992519855499,194.39973402023315,None,None,None,581.2418009081646,text_05,282,1,1,1,Reading_Baseline_main_no_click,None,und,,,,,OA04,001,no,698,1590,114,142,430,2024-08-28_08h57.55.309,EXNAT_3_fMRI_Psychopy2023.1.3,2023.1.3,74.94780479959974,
0,0,0,0,,,,,,,,,,,#F989A2,889.1859459877014,194.98642802238464,None,None,None,706.483601816329,text_05,283,1,1,1,Reading_Baseline_main_no_click,None,Brookesia,,,,,OA04,001,no,698,1590,114,142,430,2024-08-28_08h57.55.309,EXNAT_3_fMRI_Psychopy2023.1.3,2023.1.3,74.94780479959974,
0,0,0,0,,,,,,,,,,,#88BA3F,889.9056360721588,195.70611810684204,None,None,None,677.8337569923057,text_05,284,1,1,1,Reading_Baseline_main_no_click,None,tristis,,,,,OA04,001,no,698,1590,114,142,430,2024-08-28_08h57.55.309,EXNAT_3_fMRI_Psychopy2023.1.3,2023.1.3,74.94780479959974,
0,0,0,0,,,,,,,,,,,#D292F3,890.5989460945129,196.39942812919617,None,None,None,693.0563357515013,text_05,285,1,1,1,Reading_Baseline_main_no_click,None,versteht,,,,,OA04,001,no,698,1590,114,142,430,2024-08-28_08h57.55.309,EXNAT_3_fMRI_Psychopy2023.1.3,2023.1.3,74.94780479959974,
0,0,0,0,,,,,,,,,,,#F989A2,891.304713010788,197.1051950454712,None,None,None,581.2418009081646,text_05,286,1,1,1,Reading_Baseline_main_no_click,None,man,,,,,OA04,001,no,698,1590,114,142,430,2024-08-28_08h57.55.309,EXNAT_3_fMRI_Psychopy2023.1.3,2023.1.3,74.94780479959974,
0,0,0,0,,,,,,,,,,,#2AB7EF,891.8912069797516,197.69168901443481,None,None,None,614.0375571676675,text_05,287,1,1,1,Reading_Baseline_main_no_click,None,auch,,,,,OA04,001,no,698,1590,114,142,430,2024-08-28_08h57.55.309,EXNAT_3_fMRI_Psychopy2023.1.3,2023.1.3,74.94780479959974,
0,0,0,0,,,,,,,,,,,#D292F3,892.5176360607147,198.31811809539795,None,None,None,614.0375571676675,text_05,288,1,1,1,Reading_Baseline_main_no_click,None,ohne,,,,,OA04,001,no,698,1590,114,142,430,2024-08-28_08h57.55.309,EXNAT_3_fMRI_Psychopy2023.1.3,2023.1.3,74.94780479959974,
0,0,0,0,,,,,,,,,,,#F989A2,893.1444749832153,198.94495701789856,None,None,None,660.2605794919982,text_05,289,1,1,1,Reading_Baseline_main_no_click,None,Latein,,,,,OA04,001,no,698,1590,114,142,430,2024-08-28_08h57.55.309,EXNAT_3_fMRI_Psychopy2023.1.3,2023.1.3,74.94780479959974,
0,0,0,0,,,,,,,,,,,#2AB7EF,893.8107180595398,199.61120009422302,None,None,None,570.0,text_05,290,1,1,1,Reading_Baseline_main_no_click,None,zu,,,,,OA04,001,no,698,1590,114,142,430,2024-08-28_08h57.55.309,EXNAT_3_fMRI_Psychopy2023.1.3,2023.1.3,74.94780479959974,
0,0,0,0,,,,,,,,,,,#F989A2,894.3841149806976,200.18459701538086,None,None,None,677.8337569923057,text_05,291,1,1,1,Reading_Baseline_main_no_click,None,können:,,,,,OA04,001,no,698,1590,114,142,430,2024-08-28_08h57.55.309,EXNAT_3_fMRI_Psychopy2023.1.3,2023.1.3,74.94780479959974,
0,0,0,0,,,,,,,,,,,#2AB7EF,895.0769779682159,200.87746000289917,None,None,None,706.483601816329,text_05,292,1,1,1,Reading_Baseline_main_no_click,None,Desperata,,,,,OA04,001,no,698,1590,114,142,430,2024-08-28_08h57.55.309,EXNAT_3_fMRI_Psychopy2023.1.3,2023.1.3,74.94780479959974,
0,0,0,0,,,,,,,,,,,#D292F3,895.7970530986786,201.59753513336182,None,None,None,639.4759220174874,text_05,293,1,1,1,Reading_Baseline_main_no_click,None,heißt,,,,,OA04,001,no,698,1590,114,142,430,2024-08-28_08h57.55.309,EXNAT_3_fMRI_Psychopy2023.1.3,2023.1.3,74.94780479959974,
0,0,0,0,,,,,,,,,,,#2AB7EF,896.4501011371613,202.25058317184448,None,None,None,729.3600610990143,text_05,294,1,1,1,Reading_Baseline_main_no_click,None,verzweifelt,,,,,OA04,001,no,698,1590,114,142,430,2024-08-28_08h57.55.309,EXNAT_3_fMRI_Psychopy2023.1.3,2023.1.3,74.94780479959974,
0,0,0,0,,,,,,,,,,,#88BA3F,897.1826839447021,202.98316597938538,None,None,None,581.2418009081646,text_05,295,1,1,1,Reading_Baseline_main_no_click,None,und,,,,,OA04,001,no,698,1590,114,142,430,2024-08-28_08h57.55.309,EXNAT_3_fMRI_Psychopy2023.1.3,2023.1.3,74.94780479959974,
0,0,0,0,,,,,,,,,,,#D292F3,897.7693109512329,203.56979298591614,None,None,None,677.8337569923057,text_05,296,1,1,1,Reading_Baseline_main_no_click,None,tristis,,,,,OA04,001,no,698,1590,114,142,430,2024-08-28_08h57.55.309,EXNAT_3_fMRI_Psychopy2023.1.3,2023.1.3,74.94780479959974,
0,0,0,0,,,,,,,,,,,#F989A2,898.4622359275818,204.26271796226501,None,None,None,570.0,text_05,297,1,1,1,Reading_Baseline_main_no_click,None,so,,,,,OA04,001,no,698,1590,114,142,430,2024-08-28_08h57.55.309,EXNAT_3_fMRI_Psychopy2023.1.3,2023.1.3,74.94780479959974,
0,0,0,0,,,,,,,,,,,#D292F3,899.0355799198151,204.8360619544983,None,None,None,614.0375571676675,text_05,298,1,1,1,Reading_Baseline_main_no_click,None,viel,,,,,OA04,001,no,698,1590,114,142,430,2024-08-28_08h57.55.309,EXNAT_3_fMRI_Psychopy2023.1.3,2023.1.3,74.94780479959974,
0,0,0,0,,,,,,,,,,,#2AB7EF,899.6620330810547,205.46251511573792,None,None,None,581.2418009081646,text_05,299,1,1,1,Reading_Baseline_main_no_click,None,wie,,,,,OA04,001,no,698,1590,114,142,430,2024-08-28_08h57.55.309,EXNAT_3_fMRI_Psychopy2023.1.3,2023.1.3,74.94780479959974,
0,0,0,0,,,,,,,,,,,#D292F3,900.2484509944916,206.0489330291748,None,None,None,693.0563357515013,text_05,300,1,1,1,Reading_Baseline_main_no_click,None,traurig.,,,,,OA04,001,no,698,1590,114,142,430,2024-08-28_08h57.55.309,EXNAT_3_fMRI_Psychopy2023.1.3,2023.1.3,74.94780479959974,
0,0,0,0,,,,,,,,,,,,901.0018351078033,206.80231714248657,,,,,text_05,,1,1,1,Reading_Baseline_main_no_click,None,,Q1,3,c,True,OA04,001,no,698,1590,114,142,430,2024-08-28_08h57.55.309,EXNAT_3_fMRI_Psychopy2023.1.3,2023.1.3,74.94780479959974,
0,0,0,0,,,,,,,,,,,,904.4753789901733,210.27586102485657,,,,,text_05,,1,1,1,Reading_Baseline_main_no_click,None,,Q2,3,c,True,OA04,001,no,698,1590,114,142,430,2024-08-28_08h57.55.309,EXNAT_3_fMRI_Psychopy2023.1.3,2023.1.3,74.94780479959974,
0,0,0,0,,,,,,,,,,,,912.3298199176788,218.13030195236206,,,,,text_05,,1,1,1,Reading_Baseline_main_no_click,None,,Q3,2,b,True,OA04,001,no,698,1590,114,142,430,2024-08-28_08h57.55.309,EXNAT_3_fMRI_Psychopy2023.1.3,2023.1.3,74.94780479959974,
0,0,0,0,,,,,,,,,,,,,,,,,,,,,,,,,,,,,,OA04,001,no,698,1590,114,142,430,2024-08-28_08h57.55.309,EXNAT_3_fMRI_Psychopy2023.1.3,2023.1.3,74.94780479959974,
1,0,1,0,,,,,,,,,,,#88BA3F,924.75044298172,230.5509250164032,None,None,None,581.2418009081646,pseudo_text_09,1,2,1,2,Reading_pseudotext_no_click,None,Der,,,,,OA04,001,no,698,1590,114,142,430,2024-08-28_08h57.55.309,EXNAT_3_fMRI_Psychopy2023.1.3,2023.1.3,74.94780479959974,
1,0,1,0,,,,,,,,,,,#2AB7EF,925.3477420806885,231.1482241153717,None,None,None,729.3600610990143,pseudo_text_09,2,2,1,2,Reading_pseudotext_no_click,None,Maffeikulau,,,,,OA04,001,no,698,1590,114,142,430,2024-08-28_08h57.55.309,EXNAT_3_fMRI_Psychopy2023.1.3,2023.1.3,74.94780479959974,
1,0,1,0,,,,,,,,,,,#F989A2,926.0800170898438,231.88049912452698,None,None,None,677.8337569923057,pseudo_text_09,3,2,1,2,Reading_pseudotext_no_click,None,entgahn,,,,,OA04,001,no,698,1590,114,142,430,2024-08-28_08h57.55.309,EXNAT_3_fMRI_Psychopy2023.1.3,2023.1.3,74.94780479959974,
1,0,1,0,,,,,,,,,,,#F989A2,926.772598028183,232.5730800628662,None,None,None,581.2418009081646,pseudo_text_09,4,2,1,2,Reading_pseudotext_no_click,None,der,,,,,OA04,001,no,698,1590,114,142,430,2024-08-28_08h57.55.309,EXNAT_3_fMRI_Psychopy2023.1.3,2023.1.3,74.94780479959974,
1,0,1,0,,,,,,,,,,,#2AB7EF,927.3593521118164,233.15983414649963,None,None,None,706.483601816329,pseudo_text_09,5,2,1,2,Reading_pseudotext_no_click,None,Benzhenke,,,,,OA04,001,no,698,1590,114,142,430,2024-08-28_08h57.55.309,EXNAT_3_fMRI_Psychopy2023.1.3,2023.1.3,74.94780479959974,
1,0,1,0,,,,,,,,,,,#D292F3,928.0799560546875,233.88043808937073,None,None,None,718.4947006013213,pseudo_text_09,6,2,1,2,Reading_pseudotext_no_click,None,Wödinerivo,,,,,OA04,001,no,698,1590,114,142,430,2024-08-28_08h57.55.309,EXNAT_3_fMRI_Psychopy2023.1.3,2023.1.3,74.94780479959974,
1,0,1,0,,,,,,,,,,,#F989A2,928.8117980957031,234.61228013038635,None,None,None,581.2418009081646,pseudo_text_09,7,2,1,2,Reading_pseudotext_no_click,None,ost,,,,,OA04,001,no,698,1590,114,142,430,2024-08-28_08h57.55.309,EXNAT_3_fMRI_Psychopy2023.1.3,2023.1.3,74.94780479959974,
1,0,1,0,,,,,,,,,,,#88BA3F,929.3980131149292,235.19849514961243,None,None,None,581.2418009081646,pseudo_text_09,8,2,1,2,Reading_pseudotext_no_click,None,von,,,,,OA04,001,no,698,1590,114,142,430,2024-08-28_08h57.55.309,EXNAT_3_fMRI_Psychopy2023.1.3,2023.1.3,74.94780479959974,
1,0,1,0,,,,,,,,,,,#2AB7EF,929.9846820831299,235.7851641178131,None,None,None,706.483601816329,pseudo_text_09,9,2,1,2,Reading_pseudotext_no_click,None,zenkrager,,,,,OA04,001,no,698,1590,114,142,430,2024-08-28_08h57.55.309,EXNAT_3_fMRI_Psychopy2023.1.3,2023.1.3,74.94780479959974,
1,0,1,0,,,,,,,,,,,#D292F3,930.7049551010132,236.5054371356964,None,None,None,706.483601816329,pseudo_text_09,10,2,1,2,Reading_pseudotext_no_click,None,Sedehrung,,,,,OA04,001,no,698,1590,114,142,430,2024-08-28_08h57.55.309,EXNAT_3_fMRI_Psychopy2023.1.3,2023.1.3,74.94780479959974,
1,0,1,0,,,,,,,,,,,#D292F3,931.4242300987244,237.2247121334076,None,None,None,581.2418009081646,pseudo_text_09,11,2,1,2,Reading_pseudotext_no_click,None,für,,,,,OA04,001,no,698,1590,114,142,430,2024-08-28_08h57.55.309,EXNAT_3_fMRI_Psychopy2023.1.3,2023.1.3,74.94780479959974,
1,0,1,0,,,,,,,,,,,#88BA3F,932.0103969573975,237.8108789920807,None,None,None,581.2418009081646,pseudo_text_09,12,2,1,2,Reading_pseudotext_no_click,None,die,,,,,OA04,001,no,698,1590,114,142,430,2024-08-28_08h57.55.309,EXNAT_3_fMRI_Psychopy2023.1.3,2023.1.3,74.94780479959974,
1,0,1,0,,,,,,,,,,,#2AB7EF,932.5975499153137,238.39803194999695,None,None,None,718.4947006013213,pseudo_text_09,13,2,1,2,Reading_pseudotext_no_click,None,Phiduntiän,,,,,OA04,001,no,698,1590,114,142,430,2024-08-28_08h57.55.309,EXNAT_3_fMRI_Psychopy2023.1.3,2023.1.3,74.94780479959974,
1,0,1,0,,,,,,,,,,,#2AB7EF,933.3306820392609,239.1311640739441,None,None,None,706.483601816329,pseudo_text_09,14,2,1,2,Reading_pseudotext_no_click,None,feltweib.,,,,,OA04,001,no,698,1590,114,142,430,2024-08-28_08h57.55.309,EXNAT_3_fMRI_Psychopy2023.1.3,2023.1.3,74.94780479959974,
1,0,1,0,,,,,,,,,,,#F989A2,934.0499610900879,239.85044312477112,None,None,None,581.2418009081646,pseudo_text_09,15,2,1,2,Reading_pseudotext_no_click,None,Die,,,,,OA04,001,no,698,1590,114,142,430,2024-08-28_08h57.55.309,EXNAT_3_fMRI_Psychopy2023.1.3,2023.1.3,74.94780479959974,
1,0,1,0,,,,,,,,,,,#88BA3F,934.6365511417389,240.43703317642212,None,None,None,772.075114335335,pseudo_text_09,16,2,1,2,Reading_pseudotext_no_click,None,honzenverfohnten,,,,,OA04,001,no,698,1590,114,142,430,2024-08-28_08h57.55.309,EXNAT_3_fMRI_Psychopy2023.1.3,2023.1.3,74.94780479959974,
1,0,1,0,,,,,,,,,,,#2AB7EF,935.4231159687042,241.22359800338745,None,None,None,706.483601816329,pseudo_text_09,17,2,1,2,Reading_pseudotext_no_click,None,"Lediänen,",,,,,OA04,001,no,698,1590,114,142,430,2024-08-28_08h57.55.309,EXNAT_3_fMRI_Psychopy2023.1.3,2023.1.3,74.94780479959974,
1,0,1,0,,,,,,,,,,,#2AB7EF,936.1423890590668,241.94287109375,None,None,None,581.2418009081646,pseudo_text_09,18,2,1,2,Reading_pseudotext_no_click,None,wie,,,,,OA04,001,no,698,1590,114,142,430,2024-08-28_08h57.55.309,EXNAT_3_fMRI_Psychopy2023.1.3,2023.1.3,74.94780479959974,
1,0,1,0,,,,,,,,,,,#D292F3,936.7292969226837,242.52977895736694,None,None,None,756.8525355761394,pseudo_text_09,19,2,1,2,Reading_pseudotext_no_click,None,seibrielseiche,,,,,OA04,001,no,698,1590,114,142,430,2024-08-28_08h57.55.309,EXNAT_3_fMRI_Psychopy2023.1.3,2023.1.3,74.94780479959974,
1,0,1,0,,,,,,,,,,,#F989A2,937.4884929656982,243.28897500038147,None,None,None,581.2418009081646,pseudo_text_09,20,2,1,2,Reading_pseudotext_no_click,None,die,,,,,OA04,001,no,698,1590,114,142,430,2024-08-28_08h57.55.309,EXNAT_3_fMRI_Psychopy2023.1.3,2023.1.3,74.94780479959974,
1,0,1,0,,,,,,,,,,,#D292F3,938.0751519203186,243.87563395500183,None,None,None,706.483601816329,pseudo_text_09,21,2,1,2,Reading_pseudotext_no_click,None,Sochfande,,,,,OA04,001,no,698,1590,114,142,430,2024-08-28_08h57.55.309,EXNAT_3_fMRI_Psychopy2023.1.3,2023.1.3,74.94780479959974,
1,0,1,0,,,,,,,,,,,#D292F3,938.7952480316162,244.59573006629944,None,None,None,718.4947006013213,pseudo_text_09,22,2,1,2,Reading_pseudotext_no_click,None,Toblubauns,,,,,OA04,001,no,698,1590,114,142,430,2024-08-28_08h57.55.309,EXNAT_3_fMRI_Psychopy2023.1.3,2023.1.3,74.94780479959974,
1,0,1,0,,,,,,,,,,,#88BA3F,939.528018951416,245.32850098609924,None,None,None,581.2418009081646,pseudo_text_09,23,2,1,2,Reading_pseudotext_no_click,None,und,,,,,OA04,001,no,698,1590,114,142,430,2024-08-28_08h57.55.309,EXNAT_3_fMRI_Psychopy2023.1.3,2023.1.3,74.94780479959974,
1,0,1,0,,,,,,,,,,,#88BA3F,940.1155009269714,245.91598296165466,None,None,None,729.3600610990143,pseudo_text_09,24,2,1,2,Reading_pseudotext_no_click,None,"Breminiens,",,,,,OA04,001,no,698,1590,114,142,430,2024-08-28_08h57.55.309,EXNAT_3_fMRI_Psychopy2023.1.3,2023.1.3,74.94780479959974,
1,0,1,0,,,,,,,,,,,#88BA3F,940.8476800918579,246.64816212654114,None,None,None,660.2605794919982,pseudo_text_09,25,2,1,2,Reading_pseudotext_no_click,None,zauten,,,,,OA04,001,no,698,1590,114,142,430,2024-08-28_08h57.55.309,EXNAT_3_fMRI_Psychopy2023.1.3,2023.1.3,74.94780479959974,
1,0,1,0,,,,,,,,,,,#88BA3F,941.5141069889069,247.3145890235901,None,None,None,693.0563357515013,pseudo_text_09,26,2,1,2,Reading_pseudotext_no_click,None,ütrimale,,,,,OA04,001,no,698,1590,114,142,430,2024-08-28_08h57.55.309,EXNAT_3_fMRI_Psychopy2023.1.3,2023.1.3,74.94780479959974,
1,0,1,0,,,,,,,,,,,#2AB7EF,942.2204761505127,248.02095818519592,None,None,None,729.3600610990143,pseudo_text_09,27,2,1,2,Reading_pseudotext_no_click,None,Sebinkursen,,,,,OA04,001,no,698,1590,114,142,430,2024-08-28_08h57.55.309,EXNAT_3_fMRI_Psychopy2023.1.3,2023.1.3,74.94780479959974,
1,0,1,0,,,,,,,,,,,#2AB7EF,942.9532420635223,248.75372409820557,None,None,None,581.2418009081646,pseudo_text_09,28,2,1,2,Reading_pseudotext_no_click,None,für,,,,,OA04,001,no,698,1590,114,142,430,2024-08-28_08h57.55.309,EXNAT_3_fMRI_Psychopy2023.1.3,2023.1.3,74.94780479959974,
1,0,1,0,,,,,,,,,,,#F989A2,943.5396859645844,249.34016799926758,None,None,None,581.2418009081646,pseudo_text_09,29,2,1,2,Reading_pseudotext_no_click,None,den,,,,,OA04,001,no,698,1590,114,142,430,2024-08-28_08h57.55.309,EXNAT_3_fMRI_Psychopy2023.1.3,2023.1.3,74.94780479959974,
1,0,1,0,,,,,,,,,,,#F989A2,944.1266980171204,249.9271800518036,None,None,None,639.4759220174874,pseudo_text_09,30,2,1,2,Reading_pseudotext_no_click,None,Kulau,,,,,OA04,001,no,698,1590,114,142,430,2024-08-28_08h57.55.309,EXNAT_3_fMRI_Psychopy2023.1.3,2023.1.3,74.94780479959974,
1,0,1,0,,,,,,,,,,,#D292F3,944.7795600891113,250.58004212379456,None,None,None,739.2793580758321,pseudo_text_09,31,2,1,2,Reading_pseudotext_no_click,None,handnertigen,,,,,OA04,001,no,698,1590,114,142,430,2024-08-28_08h57.55.309,EXNAT_3_fMRI_Psychopy2023.1.3,2023.1.3,74.94780479959974,
1,0,1,0,,,,,,,,,,,#2AB7EF,945.5258929729462,251.3263750076294,None,None,None,693.0563357515013,pseudo_text_09,32,2,1,2,Reading_pseudotext_no_click,None,Maffeis.,,,,,OA04,001,no,698,1590,114,142,430,2024-08-28_08h57.55.309,EXNAT_3_fMRI_Psychopy2023.1.3,2023.1.3,74.94780479959974,
1,0,1,0,,,,,,,,,,,#88BA3F,946.2325501441956,252.03303217887878,None,None,None,581.2418009081646,pseudo_text_09,33,2,1,2,Reading_pseudotext_no_click,None,Die,,,,,OA04,001,no,698,1590,114,142,430,2024-08-28_08h57.55.309,EXNAT_3_fMRI_Psychopy2023.1.3,2023.1.3,74.94780479959974,
1,0,1,0,,,,,,,,,,,#88BA3F,946.8195059299469,252.61998796463013,None,None,None,693.0563357515013,pseudo_text_09,34,2,1,2,Reading_pseudotext_no_click,None,Sprannen,,,,,OA04,001,no,698,1590,114,142,430,2024-08-28_08h57.55.309,EXNAT_3_fMRI_Psychopy2023.1.3,2023.1.3,74.94780479959974,
1,0,1,0,,,,,,,,,,,#D292F3,947.5251131057739,253.32559514045715,None,None,None,660.2605794919982,pseudo_text_09,35,2,1,2,Reading_pseudotext_no_click,None,herfen,,,,,OA04,001,no,698,1590,114,142,430,2024-08-28_08h57.55.309,EXNAT_3_fMRI_Psychopy2023.1.3,2023.1.3,74.94780479959974,
1,0,1,0,,,,,,,,,,,#D292F3,948.1913831233978,253.99186515808105,None,None,None,581.2418009081646,pseudo_text_09,36,2,1,2,Reading_pseudotext_no_click,None,auf,,,,,OA04,001,no,698,1590,114,142,430,2024-08-28_08h57.55.309,EXNAT_3_fMRI_Psychopy2023.1.3,2023.1.3,74.94780479959974,
1,0,1,0,,,,,,,,,,,#F989A2,948.7779879570007,254.57846999168396,None,None,None,581.2418009081646,pseudo_text_09,37,2,1,2,Reading_pseudotext_no_click,None,den,,,,,OA04,001,no,698,1590,114,142,430,2024-08-28_08h57.55.309,EXNAT_3_fMRI_Psychopy2023.1.3,2023.1.3,74.94780479959974,
1,0,1,0,,,,,,,,,,,#88BA3F,949.3647980690002,255.16528010368347,None,None,None,764.717722925652,pseudo_text_09,38,2,1,2,Reading_pseudotext_no_click,None,kerdissenwintig,,,,,OA04,001,no,698,1590,114,142,430,2024-08-28_08h57.55.309,EXNAT_3_fMRI_Psychopy2023.1.3,2023.1.3,74.94780479959974,
1,0,1,0,,,,,,,,,,,#2AB7EF,950.1378710269928,255.93835306167603,None,None,None,729.3600610990143,pseudo_text_09,39,2,1,2,Reading_pseudotext_no_click,None,antedergten,,,,,OA04,001,no,698,1590,114,142,430,2024-08-28_08h57.55.309,EXNAT_3_fMRI_Psychopy2023.1.3,2023.1.3,74.94780479959974,
1,0,1,0,,,,,,,,,,,#F989A2,950.8706820011139,256.6711640357971,None,None,None,693.0563357515013,pseudo_text_09,40,2,1,2,Reading_pseudotext_no_click,None,Krabwage,,,,,OA04,001,no,698,1590,114,142,430,2024-08-28_08h57.55.309,EXNAT_3_fMRI_Psychopy2023.1.3,2023.1.3,74.94780479959974,
1,0,1,0,,,,,,,,,,,#2AB7EF,951.5773210525513,257.3778030872345,None,None,None,706.483601816329,pseudo_text_09,41,2,1,2,Reading_pseudotext_no_click,None,leubewanz,,,,,OA04,001,no,698,1590,114,142,430,2024-08-28_08h57.55.309,EXNAT_3_fMRI_Psychopy2023.1.3,2023.1.3,74.94780479959974,
1,0,1,0,,,,,,,,,,,#D292F3,952.2968339920044,258.0973160266876,None,None,None,706.483601816329,pseudo_text_09,42,2,1,2,Reading_pseudotext_no_click,None,zeährtet.,,,,,OA04,001,no,698,1590,114,142,430,2024-08-28_08h57.55.309,EXNAT_3_fMRI_Psychopy2023.1.3,2023.1.3,74.94780479959974,
1,0,1,0,,,,,,,,,,,#F989A2,953.016340970993,258.81682300567627,None,None,None,581.2418009081646,pseudo_text_09,43,2,1,2,Reading_pseudotext_no_click,None,Die,,,,,OA04,001,no,698,1590,114,142,430,2024-08-28_08h57.55.309,EXNAT_3_fMRI_Psychopy2023.1.3,2023.1.3,74.94780479959974,
1,0,1,0,,,,,,,,,,,#D292F3,953.6030330657959,259.4035151004791,None,None,None,677.8337569923057,pseudo_text_09,44,2,1,2,Reading_pseudotext_no_click,None,"Wiiern,",,,,,OA04,001,no,698,1590,114,142,430,2024-08-28_08h57.55.309,EXNAT_3_fMRI_Psychopy2023.1.3,2023.1.3,74.94780479959974,
1,0,1,0,,,,,,,,,,,#2AB7EF,954.2959189414978,260.09640097618103,None,None,None,581.2418009081646,pseudo_text_09,45,2,1,2,Reading_pseudotext_no_click,None,die,,,,,OA04,001,no,698,1590,114,142,430,2024-08-28_08h57.55.309,EXNAT_3_fMRI_Psychopy2023.1.3,2023.1.3,74.94780479959974,
1,0,1,0,,,,,,,,,,,#D292F3,954.8826150894165,260.68309712409973,None,None,None,739.2793580758321,pseudo_text_09,46,2,1,2,Reading_pseudotext_no_click,None,Deretotianen,,,,,OA04,001,no,698,1590,114,142,430,2024-08-28_08h57.55.309,EXNAT_3_fMRI_Psychopy2023.1.3,2023.1.3,74.94780479959974,
1,0,1,0,,,,,,,,,,,#88BA3F,955.6287930011749,261.42927503585815,None,None,None,581.2418009081646,pseudo_text_09,47,2,1,2,Reading_pseudotext_no_click,None,von,,,,,OA04,001,no,698,1590,114,142,430,2024-08-28_08h57.55.309,EXNAT_3_fMRI_Psychopy2023.1.3,2023.1.3,74.94780479959974,
1,0,1,0,,,,,,,,,,,#88BA3F,956.2153980731964,262.01588010787964,None,None,None,660.2605794919982,pseudo_text_09,48,2,1,2,Reading_pseudotext_no_click,None,Sassen,,,,,OA04,001,no,698,1590,114,142,430,2024-08-28_08h57.55.309,EXNAT_3_fMRI_Psychopy2023.1.3,2023.1.3,74.94780479959974,
1,0,1,0,,,,,,,,,,,#88BA3F,956.8816430568695,262.68212509155273,None,None,None,581.2418009081646,pseudo_text_09,49,2,1,2,Reading_pseudotext_no_click,None,und,,,,,OA04,001,no,698,1590,114,142,430,2024-08-28_08h57.55.309,EXNAT_3_fMRI_Psychopy2023.1.3,2023.1.3,74.94780479959974,
1,0,1,0,,,,,,,,,,,#88BA3F,957.4685781002045,263.2690601348877,None,None,None,729.3600610990143,pseudo_text_09,50,2,1,2,Reading_pseudotext_no_click,None,Prafiteanen,,,,,OA04,001,no,698,1590,114,142,430,2024-08-28_08h57.55.309,EXNAT_3_fMRI_Psychopy2023.1.3,2023.1.3,74.94780479959974,
1,0,1,0,,,,,,,,,,,#2AB7EF,958.2014729976654,264.00195503234863,None,None,None,739.2793580758321,pseudo_text_09,51,2,1,2,Reading_pseudotext_no_click,None,"neiderteken,",,,,,OA04,001,no,698,1590,114,142,430,2024-08-28_08h57.55.309,EXNAT_3_fMRI_Psychopy2023.1.3,2023.1.3,74.94780479959974,
1,0,1,0,,,,,,,,,,,#D292F3,958.9476470947266,264.7481291294098,None,None,None,614.0375571676675,pseudo_text_09,52,2,1,2,Reading_pseudotext_no_click,None,hind,,,,,OA04,001,no,698,1590,114,142,430,2024-08-28_08h57.55.309,EXNAT_3_fMRI_Psychopy2023.1.3,2023.1.3,74.94780479959974,
1,0,1,0,,,,,,,,,,,#88BA3F,959.5741720199585,265.3746540546417,None,None,None,639.4759220174874,pseudo_text_09,53,2,1,2,Reading_pseudotext_no_click,None,storm,,,,,OA04,001,no,698,1590,114,142,430,2024-08-28_08h57.55.309,EXNAT_3_fMRI_Psychopy2023.1.3,2023.1.3,74.94780479959974,
1,0,1,0,,,,,,,,,,,#F989A2,960.2273440361023,266.0278260707855,None,None,None,581.2418009081646,pseudo_text_09,54,2,1,2,Reading_pseudotext_no_click,None,auf,,,,,OA04,001,no,698,1590,114,142,430,2024-08-28_08h57.55.309,EXNAT_3_fMRI_Psychopy2023.1.3,2023.1.3,74.94780479959974,
1,0,1,0,,,,,,,,,,,#F989A2,960.8137700557709,266.6142520904541,None,None,None,614.0375571676675,pseudo_text_09,55,2,1,2,Reading_pseudotext_no_click,None,obre,,,,,OA04,001,no,698,1590,114,142,430,2024-08-28_08h57.55.309,EXNAT_3_fMRI_Psychopy2023.1.3,2023.1.3,74.94780479959974,
1,0,1,0,,,,,,,,,,,#2AB7EF,961.4402120113373,267.2406940460205,None,None,None,660.2605794919982,pseudo_text_09,56,2,1,2,Reading_pseudotext_no_click,None,Wudeit,,,,,OA04,001,no,698,1590,114,142,430,2024-08-28_08h57.55.309,EXNAT_3_fMRI_Psychopy2023.1.3,2023.1.3,74.94780479959974,
1,0,1,0,,,,,,,,,,,#D292F3,962.1064419746399,267.9069240093231,None,None,None,581.2418009081646,pseudo_text_09,57,2,1,2,Reading_pseudotext_no_click,None,und,,,,,OA04,001,no,698,1590,114,142,430,2024-08-28_08h57.55.309,EXNAT_3_fMRI_Psychopy2023.1.3,2023.1.3,74.94780479959974,
