loop_run1_single_reading.thisRepN,loop_run1_single_reading.thisTrialN,loop_run1_single_reading.thisN,loop_run1_single_reading.thisIndex,loop_run2_single_nback.thisRepN,loop_run2_single_nback.thisTrialN,loop_run2_single_nback.thisN,loop_run2_single_nback.thisIndex,loop_dual_task_blocks.thisRepN,loop_dual_task_blocks.thisTrialN,loop_dual_task_blocks.thisN,loop_dual_task_blocks.thisIndex,TriggerCount,TriggerTime,colour,global_onset_time,onset_time_rel2trigger,target,nback_response,nback_RT,duration,text_nr,trial_nr,block_nr_exp,run_nr,block_nr_run,block_name,n-back_level,word,question,button_pressed,chosen_ans,ans_correct,participant,session,testing_mode,RT_per_rectangle_oneback_single,RT_per_rectangle_twoback_single,RT_per_letter_baseline,RT_per_letter_oneback_dual,RT_per_letter_twoback_dual,date,expName,psychopyVersion,frameRate,
0,0,0,0,,,,,,,,,1,912.5126168727875,#F989A2,923.3656978607178,10.853080987930298,None,None,None,499.4564525206463,text_02,1,1,1,1,Reading_Baseline_main_no_click,None,Zwanzig,,,,,YA01,001,no,577,843,84,125,166,2024-08-26_12h38.24.015,EXNAT_3_fMRI_Psychopy2023.1.3,2023.1.3,74.90805051372769,
0,0,0,0,,,,,,,,,,,#D292F3,923.8713088035583,11.358691930770874,None,None,None,471.1927846444644,text_02,2,1,1,1,Reading_Baseline_main_no_click,None,Jahre,,,,,YA01,001,no,577,843,84,125,166,2024-08-26_12h38.24.015,EXNAT_3_fMRI_Psychopy2023.1.3,2023.1.3,74.90805051372769,
0,0,0,0,,,,,,,,,,,#D292F3,924.3514478206635,11.838830947875977,None,None,None,529.4171478114998,text_02,3,1,1,1,Reading_Baseline_main_no_click,None,verbrachte,,,,,YA01,001,no,577,843,84,125,166,2024-08-26_12h38.24.015,EXNAT_3_fMRI_Psychopy2023.1.3,2023.1.3,74.90805051372769,
0,0,0,0,,,,,,,,,,,#88BA3F,924.8844738006592,12.371856927871704,None,None,None,486.5077954151566,text_02,4,1,1,1,Reading_Baseline_main_no_click,None,Ernest,,,,,YA01,001,no,577,843,84,125,166,2024-08-26_12h38.24.015,EXNAT_3_fMRI_Psychopy2023.1.3,2023.1.3,74.90805051372769,
0,0,0,0,,,,,,,,,,,#2AB7EF,925.3773229122162,12.864706039428711,None,None,None,520.5668644962425,text_02,5,1,1,1,Reading_Baseline_main_no_click,None,Hemingway,,,,,YA01,001,no,577,843,84,125,166,2024-08-26_12h38.24.015,EXNAT_3_fMRI_Psychopy2023.1.3,2023.1.3,74.90805051372769,
0,0,0,0,,,,,,,,,,,#F989A2,925.9101369380951,13.397520065307617,None,None,None,428.28343224812124,text_02,6,1,1,1,Reading_Baseline_main_no_click,None,auf,,,,,YA01,001,no,577,843,84,125,166,2024-08-26_12h38.24.015,EXNAT_3_fMRI_Psychopy2023.1.3,2023.1.3,74.90805051372769,
0,0,0,0,,,,,,,,,,,#D292F3,926.3500549793243,13.837438106536865,None,None,None,471.1927846444644,text_02,7,1,1,1,Reading_Baseline_main_no_click,None,Kuba.,,,,,YA01,001,no,577,843,84,125,166,2024-08-26_12h38.24.015,EXNAT_3_fMRI_Psychopy2023.1.3,2023.1.3,74.90805051372769,
0,0,0,0,,,,,,,,,,,#2AB7EF,926.8296909332275,14.317074060440063,None,None,None,428.28343224812124,text_02,8,1,1,1,Reading_Baseline_main_no_click,None,Die,,,,,YA01,001,no,577,843,84,125,166,2024-08-26_12h38.24.015,EXNAT_3_fMRI_Psychopy2023.1.3,2023.1.3,74.90805051372769,
0,0,0,0,,,,,,,,,,,#F989A2,927.2694618701935,14.756844997406006,None,None,None,486.5077954151566,text_02,9,1,1,1,Reading_Baseline_main_no_click,None,meiste,,,,,YA01,001,no,577,843,84,125,166,2024-08-26_12h38.24.015,EXNAT_3_fMRI_Psychopy2023.1.3,2023.1.3,74.90805051372769,
0,0,0,0,,,,,,,,,,,#F989A2,927.7623679637909,15.249751091003418,None,None,None,452.4487263340708,text_02,10,1,1,1,Reading_Baseline_main_no_click,None,Zeit,,,,,YA01,001,no,577,843,84,125,166,2024-08-26_12h38.24.015,EXNAT_3_fMRI_Psychopy2023.1.3,2023.1.3,74.90805051372769,
0,0,0,0,,,,,,,,,,,#2AB7EF,928.2295079231262,15.716891050338745,None,None,None,471.1927846444644,text_02,11,1,1,1,Reading_Baseline_main_no_click,None,davon,,,,,YA01,001,no,577,843,84,125,166,2024-08-26_12h38.24.015,EXNAT_3_fMRI_Psychopy2023.1.3,2023.1.3,74.90805051372769,
0,0,0,0,,,,,,,,,,,#2AB7EF,928.709422826767,16.196805953979492,None,None,None,471.1927846444644,text_02,12,1,1,1,Reading_Baseline_main_no_click,None,lebte,,,,,YA01,001,no,577,843,84,125,166,2024-08-26_12h38.24.015,EXNAT_3_fMRI_Psychopy2023.1.3,2023.1.3,74.90805051372769,
0,0,0,0,,,,,,,,,,,#F989A2,929.1884889602661,16.675872087478638,None,None,None,420.0,text_02,13,1,1,1,Reading_Baseline_main_no_click,None,er,,,,,YA01,001,no,577,843,84,125,166,2024-08-26_12h38.24.015,EXNAT_3_fMRI_Psychopy2023.1.3,2023.1.3,74.90805051372769,
0,0,0,0,,,,,,,,,,,#D292F3,929.6149168014526,17.10229992866516,None,None,None,420.0,text_02,14,1,1,1,Reading_Baseline_main_no_click,None,in,,,,,YA01,001,no,577,843,84,125,166,2024-08-26_12h38.24.015,EXNAT_3_fMRI_Psychopy2023.1.3,2023.1.3,74.90805051372769,
0,0,0,0,,,,,,,,,,,#2AB7EF,930.0425539016724,17.529937028884888,None,None,None,486.5077954151566,text_02,15,1,1,1,Reading_Baseline_main_no_click,None,"Vigía,",,,,,YA01,001,no,577,843,84,125,166,2024-08-26_12h38.24.015,EXNAT_3_fMRI_Psychopy2023.1.3,2023.1.3,74.90805051372769,
0,0,0,0,,,,,,,,,,,#88BA3F,930.5347278118134,18.02211093902588,None,None,None,486.5077954151566,text_02,16,1,1,1,Reading_Baseline_main_no_click,None,seinem,,,,,YA01,001,no,577,843,84,125,166,2024-08-26_12h38.24.015,EXNAT_3_fMRI_Psychopy2023.1.3,2023.1.3,74.90805051372769,
0,0,0,0,,,,,,,,,,,#F989A2,931.0283198356628,18.515702962875366,None,None,None,529.4171478114998,text_02,17,1,1,1,Reading_Baseline_main_no_click,None,legendären,,,,,YA01,001,no,577,843,84,125,166,2024-08-26_12h38.24.015,EXNAT_3_fMRI_Psychopy2023.1.3,2023.1.3,74.90805051372769,
0,0,0,0,,,,,,,,,,,#88BA3F,931.560840845108,19.048223972320557,None,None,None,452.4487263340708,text_02,18,1,1,1,Reading_Baseline_main_no_click,None,Haus,,,,,YA01,001,no,577,843,84,125,166,2024-08-26_12h38.24.015,EXNAT_3_fMRI_Psychopy2023.1.3,2023.1.3,74.90805051372769,
0,0,0,0,,,,,,,,,,,#F989A2,932.0275449752808,19.514928102493286,None,None,None,428.28343224812124,text_02,19,1,1,1,Reading_Baseline_main_no_click,None,vor,,,,,YA01,001,no,577,843,84,125,166,2024-08-26_12h38.24.015,EXNAT_3_fMRI_Psychopy2023.1.3,2023.1.3,74.90805051372769,
0,0,0,0,,,,,,,,,,,#D292F3,932.4673569202423,19.954740047454834,None,None,None,428.28343224812124,text_02,20,1,1,1,Reading_Baseline_main_no_click,None,den,,,,,YA01,001,no,577,843,84,125,166,2024-08-26_12h38.24.015,EXNAT_3_fMRI_Psychopy2023.1.3,2023.1.3,74.90805051372769,
0,0,0,0,,,,,,,,,,,#D292F3,932.9078359603882,20.395219087600708,None,None,None,471.1927846444644,text_02,21,1,1,1,Reading_Baseline_main_no_click,None,Toren,,,,,YA01,001,no,577,843,84,125,166,2024-08-26_12h38.24.015,EXNAT_3_fMRI_Psychopy2023.1.3,2023.1.3,74.90805051372769,
0,0,0,0,,,,,,,,,,,#88BA3F,933.3871757984161,20.874558925628662,None,None,None,520.5668644962425,text_02,22,1,1,1,Reading_Baseline_main_no_click,None,Havannas.,,,,,YA01,001,no,577,843,84,125,166,2024-08-26_12h38.24.015,EXNAT_3_fMRI_Psychopy2023.1.3,2023.1.3,74.90805051372769,
0,0,0,0,,,,,,,,,,,#F989A2,933.9205129146576,21.407896041870117,None,None,None,452.4487263340708,text_02,23,1,1,1,Reading_Baseline_main_no_click,None,Seit,,,,,YA01,001,no,577,843,84,125,166,2024-08-26_12h38.24.015,EXNAT_3_fMRI_Psychopy2023.1.3,2023.1.3,74.90805051372769,
0,0,0,0,,,,,,,,,,,#88BA3F,934.3867678642273,21.87415099143982,None,None,None,486.5077954151566,text_02,24,1,1,1,Reading_Baseline_main_no_click,None,seinem,,,,,YA01,001,no,577,843,84,125,166,2024-08-26_12h38.24.015,EXNAT_3_fMRI_Psychopy2023.1.3,2023.1.3,74.90805051372769,
0,0,0,0,,,,,,,,,,,#D292F3,934.8796420097351,22.367025136947632,None,None,None,428.28343224812124,text_02,25,1,1,1,Reading_Baseline_main_no_click,None,Tod,,,,,YA01,001,no,577,843,84,125,166,2024-08-26_12h38.24.015,EXNAT_3_fMRI_Psychopy2023.1.3,2023.1.3,74.90805051372769,
0,0,0,0,,,,,,,,,,,#F989A2,935.3201529979706,22.807536125183105,None,None,None,486.5077954151566,text_02,26,1,1,1,Reading_Baseline_main_no_click,None,Anfang,,,,,YA01,001,no,577,843,84,125,166,2024-08-26_12h38.24.015,EXNAT_3_fMRI_Psychopy2023.1.3,2023.1.3,74.90805051372769,
0,0,0,0,,,,,,,,,,,#88BA3F,935.8126587867737,23.300041913986206,None,None,None,428.28343224812124,text_02,27,1,1,1,Reading_Baseline_main_no_click,None,der,,,,,YA01,001,no,577,843,84,125,166,2024-08-26_12h38.24.015,EXNAT_3_fMRI_Psychopy2023.1.3,2023.1.3,74.90805051372769,
0,0,0,0,,,,,,,,,,,#2AB7EF,936.254047870636,23.74143099784851,None,None,None,486.5077954151566,text_02,28,1,1,1,Reading_Baseline_main_no_click,None,1960er,,,,,YA01,001,no,577,843,84,125,166,2024-08-26_12h38.24.015,EXNAT_3_fMRI_Psychopy2023.1.3,2023.1.3,74.90805051372769,
0,0,0,0,,,,,,,,,,,#D292F3,936.7461278438568,24.233510971069336,None,None,None,486.5077954151566,text_02,29,1,1,1,Reading_Baseline_main_no_click,None,lagern,,,,,YA01,001,no,577,843,84,125,166,2024-08-26_12h38.24.015,EXNAT_3_fMRI_Psychopy2023.1.3,2023.1.3,74.90805051372769,
0,0,0,0,,,,,,,,,,,#2AB7EF,937.238912820816,24.726295948028564,None,None,None,420.0,text_02,30,1,1,1,Reading_Baseline_main_no_click,None,in,,,,,YA01,001,no,577,843,84,125,166,2024-08-26_12h38.24.015,EXNAT_3_fMRI_Psychopy2023.1.3,2023.1.3,74.90805051372769,
0,0,0,0,,,,,,,,,,,#D292F3,937.6653139591217,25.15269708633423,None,None,None,471.1927846444644,text_02,31,1,1,1,Reading_Baseline_main_no_click,None,Vigía,,,,,YA01,001,no,577,843,84,125,166,2024-08-26_12h38.24.015,EXNAT_3_fMRI_Psychopy2023.1.3,2023.1.3,74.90805051372769,
0,0,0,0,,,,,,,,,,,#F989A2,938.1450288295746,25.63241195678711,None,None,None,452.4487263340708,text_02,32,1,1,1,Reading_Baseline_main_no_click,None,etwa,,,,,YA01,001,no,577,843,84,125,166,2024-08-26_12h38.24.015,EXNAT_3_fMRI_Psychopy2023.1.3,2023.1.3,74.90805051372769,
0,0,0,0,,,,,,,,,,,#2AB7EF,938.611918926239,26.099302053451538,None,None,None,452.4487263340708,text_02,33,1,1,1,Reading_Baseline_main_no_click,None,3000,,,,,YA01,001,no,577,843,84,125,166,2024-08-26_12h38.24.015,EXNAT_3_fMRI_Psychopy2023.1.3,2023.1.3,74.90805051372769,
0,0,0,0,,,,,,,,,,,#D292F3,939.0797100067139,26.56709313392639,None,None,None,537.4232029150631,text_02,34,1,1,1,Reading_Baseline_main_no_click,None,Manuskripte,,,,,YA01,001,no,577,843,84,125,166,2024-08-26_12h38.24.015,EXNAT_3_fMRI_Psychopy2023.1.3,2023.1.3,74.90805051372769,
0,0,0,0,,,,,,,,,,,#88BA3F,939.6245028972626,27.111886024475098,None,None,None,428.28343224812124,text_02,35,1,1,1,Reading_Baseline_main_no_click,None,des,,,,,YA01,001,no,577,843,84,125,166,2024-08-26_12h38.24.015,EXNAT_3_fMRI_Psychopy2023.1.3,2023.1.3,74.90805051372769,
0,0,0,0,,,,,,,,,,,#F989A2,940.0644929409027,27.551876068115234,None,None,None,499.4564525206463,text_02,36,1,1,1,Reading_Baseline_main_no_click,None,Autors.,,,,,YA01,001,no,577,843,84,125,166,2024-08-26_12h38.24.015,EXNAT_3_fMRI_Psychopy2023.1.3,2023.1.3,74.90805051372769,
0,0,0,0,,,,,,,,,,,#D292F3,940.5718479156494,28.05923104286194,None,None,None,420.0,text_02,37,1,1,1,Reading_Baseline_main_no_click,None,In,,,,,YA01,001,no,577,843,84,125,166,2024-08-26_12h38.24.015,EXNAT_3_fMRI_Psychopy2023.1.3,2023.1.3,74.90805051372769,
0,0,0,0,,,,,,,,,,,#2AB7EF,940.9973709583282,28.48475408554077,None,None,None,428.28343224812124,text_02,38,1,1,1,Reading_Baseline_main_no_click,None,den,,,,,YA01,001,no,577,843,84,125,166,2024-08-26_12h38.24.015,EXNAT_3_fMRI_Psychopy2023.1.3,2023.1.3,74.90805051372769,
0,0,0,0,,,,,,,,,,,#88BA3F,941.437502861023,28.924885988235474,None,None,None,537.4232029150631,text_02,39,1,1,1,Reading_Baseline_main_no_click,None,vergangenen,,,,,YA01,001,no,577,843,84,125,166,2024-08-26_12h38.24.015,EXNAT_3_fMRI_Psychopy2023.1.3,2023.1.3,74.90805051372769,
0,0,0,0,,,,,,,,,,,#D292F3,941.9838688373566,29.471251964569092,None,None,None,486.5077954151566,text_02,40,1,1,1,Reading_Baseline_main_no_click,None,Jahren,,,,,YA01,001,no,577,843,84,125,166,2024-08-26_12h38.24.015,EXNAT_3_fMRI_Psychopy2023.1.3,2023.1.3,74.90805051372769,
0,0,0,0,,,,,,,,,,,#F989A2,942.476881980896,29.96426510810852,None,None,None,452.4487263340708,text_02,41,1,1,1,Reading_Baseline_main_no_click,None,sind,,,,,YA01,001,no,577,843,84,125,166,2024-08-26_12h38.24.015,EXNAT_3_fMRI_Psychopy2023.1.3,2023.1.3,74.90805051372769,
0,0,0,0,,,,,,,,,,,#F989A2,942.9433798789978,30.430763006210327,None,None,None,428.28343224812124,text_02,42,1,1,1,Reading_Baseline_main_no_click,None,sie,,,,,YA01,001,no,577,843,84,125,166,2024-08-26_12h38.24.015,EXNAT_3_fMRI_Psychopy2023.1.3,2023.1.3,74.90805051372769,
0,0,0,0,,,,,,,,,,,#2AB7EF,943.3832960128784,30.870679140090942,None,None,None,452.4487263340708,text_02,43,1,1,1,Reading_Baseline_main_no_click,None,nach,,,,,YA01,001,no,577,843,84,125,166,2024-08-26_12h38.24.015,EXNAT_3_fMRI_Psychopy2023.1.3,2023.1.3,74.90805051372769,
0,0,0,0,,,,,,,,,,,#D292F3,943.8496978282928,31.33708095550537,None,None,None,428.28343224812124,text_02,44,1,1,1,Reading_Baseline_main_no_click,None,und,,,,,YA01,001,no,577,843,84,125,166,2024-08-26_12h38.24.015,EXNAT_3_fMRI_Psychopy2023.1.3,2023.1.3,74.90805051372769,
0,0,0,0,,,,,,,,,,,#88BA3F,944.2895848751068,31.776968002319336,None,None,None,452.4487263340708,text_02,45,1,1,1,Reading_Baseline_main_no_click,None,nach,,,,,YA01,001,no,577,843,84,125,166,2024-08-26_12h38.24.015,EXNAT_3_fMRI_Psychopy2023.1.3,2023.1.3,74.90805051372769,
0,0,0,0,,,,,,,,,,,#F989A2,944.7565138339996,32.24389696121216,None,None,None,551.455746026769,text_02,46,1,1,1,Reading_Baseline_main_no_click,None,digitalisiert,,,,,YA01,001,no,577,843,84,125,166,2024-08-26_12h38.24.015,EXNAT_3_fMRI_Psychopy2023.1.3,2023.1.3,74.90805051372769,
0,0,0,0,,,,,,,,,,,#88BA3F,945.31600689888,32.80339002609253,None,None,None,499.4564525206463,text_02,47,1,1,1,Reading_Baseline_main_no_click,None,worden.,,,,,YA01,001,no,577,843,84,125,166,2024-08-26_12h38.24.015,EXNAT_3_fMRI_Psychopy2023.1.3,2023.1.3,74.90805051372769,
0,0,0,0,,,,,,,,,,,#2AB7EF,945.8229069709778,33.31029009819031,None,None,None,428.28343224812124,text_02,48,1,1,1,Reading_Baseline_main_no_click,None,Nun,,,,,YA01,001,no,577,843,84,125,166,2024-08-26_12h38.24.015,EXNAT_3_fMRI_Psychopy2023.1.3,2023.1.3,74.90805051372769,
0,0,0,0,,,,,,,,,,,#88BA3F,946.262218952179,33.74960207939148,None,None,None,452.4487263340708,text_02,49,1,1,1,Reading_Baseline_main_no_click,None,will,,,,,YA01,001,no,577,843,84,125,166,2024-08-26_12h38.24.015,EXNAT_3_fMRI_Psychopy2023.1.3,2023.1.3,74.90805051372769,
0,0,0,0,,,,,,,,,,,#2AB7EF,946.7287538051605,34.21613693237305,None,None,None,428.28343224812124,text_02,50,1,1,1,Reading_Baseline_main_no_click,None,man,,,,,YA01,001,no,577,843,84,125,166,2024-08-26_12h38.24.015,EXNAT_3_fMRI_Psychopy2023.1.3,2023.1.3,74.90805051372769,
0,0,0,0,,,,,,,,,,,#D292F3,947.1685719490051,34.65595507621765,None,None,None,428.28343224812124,text_02,51,1,1,1,Reading_Baseline_main_no_click,None,sie,,,,,YA01,001,no,577,843,84,125,166,2024-08-26_12h38.24.015,EXNAT_3_fMRI_Psychopy2023.1.3,2023.1.3,74.90805051372769,
0,0,0,0,,,,,,,,,,,#F989A2,947.6085779666901,35.09596109390259,None,None,None,510.67308950110623,text_02,52,1,1,1,Reading_Baseline_main_no_click,None,zunächst,,,,,YA01,001,no,577,843,84,125,166,2024-08-26_12h38.24.015,EXNAT_3_fMRI_Psychopy2023.1.3,2023.1.3,74.90805051372769,
0,0,0,0,,,,,,,,,,,#2AB7EF,948.1281769275665,35.61556005477905,None,None,None,420.0,text_02,53,1,1,1,Reading_Baseline_main_no_click,None,in,,,,,YA01,001,no,577,843,84,125,166,2024-08-26_12h38.24.015,EXNAT_3_fMRI_Psychopy2023.1.3,2023.1.3,74.90805051372769,
0,0,0,0,,,,,,,,,,,#D292F3,948.5547108650208,36.042093992233276,None,None,None,452.4487263340708,text_02,54,1,1,1,Reading_Baseline_main_no_click,None,Kuba,,,,,YA01,001,no,577,843,84,125,166,2024-08-26_12h38.24.015,EXNAT_3_fMRI_Psychopy2023.1.3,2023.1.3,74.90805051372769,
0,0,0,0,,,,,,,,,,,#88BA3F,949.0215718746185,36.508955001831055,None,None,None,499.4564525206463,text_02,55,1,1,1,Reading_Baseline_main_no_click,None,"zeigen,",,,,,YA01,001,no,577,843,84,125,166,2024-08-26_12h38.24.015,EXNAT_3_fMRI_Psychopy2023.1.3,2023.1.3,74.90805051372769,
0,0,0,0,,,,,,,,,,,#F989A2,949.5278429985046,37.01522612571716,None,None,None,471.1927846444644,text_02,56,1,1,1,Reading_Baseline_main_no_click,None,bevor,,,,,YA01,001,no,577,843,84,125,166,2024-08-26_12h38.24.015,EXNAT_3_fMRI_Psychopy2023.1.3,2023.1.3,74.90805051372769,
0,0,0,0,,,,,,,,,,,#88BA3F,950.0078389644623,37.495222091674805,None,None,None,428.28343224812124,text_02,57,1,1,1,Reading_Baseline_main_no_click,None,sie,,,,,YA01,001,no,577,843,84,125,166,2024-08-26_12h38.24.015,EXNAT_3_fMRI_Psychopy2023.1.3,2023.1.3,74.90805051372769,
0,0,0,0,,,,,,,,,,,#D292F3,950.4475409984589,37.93492412567139,None,None,None,452.4487263340708,text_02,58,1,1,1,Reading_Baseline_main_no_click,None,dann,,,,,YA01,001,no,577,843,84,125,166,2024-08-26_12h38.24.015,EXNAT_3_fMRI_Psychopy2023.1.3,2023.1.3,74.90805051372769,
0,0,0,0,,,,,,,,,,,#F989A2,950.9141058921814,38.40148901939392,None,None,None,428.28343224812124,text_02,59,1,1,1,Reading_Baseline_main_no_click,None,der,,,,,YA01,001,no,577,843,84,125,166,2024-08-26_12h38.24.015,EXNAT_3_fMRI_Psychopy2023.1.3,2023.1.3,74.90805051372769,
0,0,0,0,,,,,,,,,,,#2AB7EF,951.3548908233643,38.84227395057678,None,None,None,529.4171478114998,text_02,60,1,1,1,Reading_Baseline_main_no_click,None,Bibliothek,,,,,YA01,001,no,577,843,84,125,166,2024-08-26_12h38.24.015,EXNAT_3_fMRI_Psychopy2023.1.3,2023.1.3,74.90805051372769,
0,0,0,0,,,,,,,,,,,#88BA3F,951.8871159553528,39.37449908256531,None,None,None,428.28343224812124,text_02,61,1,1,1,Reading_Baseline_main_no_click,None,von,,,,,YA01,001,no,577,843,84,125,166,2024-08-26_12h38.24.015,EXNAT_3_fMRI_Psychopy2023.1.3,2023.1.3,74.90805051372769,
0,0,0,0,,,,,,,,,,,#F989A2,952.3273680210114,39.81475114822388,None,None,None,486.5077954151566,text_02,62,1,1,1,Reading_Baseline_main_no_click,None,Boston,,,,,YA01,001,no,577,843,84,125,166,2024-08-26_12h38.24.015,EXNAT_3_fMRI_Psychopy2023.1.3,2023.1.3,74.90805051372769,
0,0,0,0,,,,,,,,,,,#88BA3F,952.8212490081787,40.308632135391235,None,None,None,520.5668644962425,text_02,63,1,1,1,Reading_Baseline_main_no_click,None,übergeben,,,,,YA01,001,no,577,843,84,125,166,2024-08-26_12h38.24.015,EXNAT_3_fMRI_Psychopy2023.1.3,2023.1.3,74.90805051372769,
0,0,0,0,,,,,,,,,,,#2AB7EF,953.3533809185028,40.84076404571533,None,None,None,499.4564525206463,text_02,64,1,1,1,Reading_Baseline_main_no_click,None,werden.,,,,,YA01,001,no,577,843,84,125,166,2024-08-26_12h38.24.015,EXNAT_3_fMRI_Psychopy2023.1.3,2023.1.3,74.90805051372769,
0,0,0,0,,,,,,,,,,,#D292F3,953.8595478534698,41.34693098068237,None,None,None,428.28343224812124,text_02,65,1,1,1,Reading_Baseline_main_no_click,None,Die,,,,,YA01,001,no,577,843,84,125,166,2024-08-26_12h38.24.015,EXNAT_3_fMRI_Psychopy2023.1.3,2023.1.3,74.90805051372769,
0,0,0,0,,,,,,,,,,,#88BA3F,954.3000938892365,41.787477016448975,None,None,None,510.67308950110623,text_02,66,1,1,1,Reading_Baseline_main_no_click,None,Leiterin,,,,,YA01,001,no,577,843,84,125,166,2024-08-26_12h38.24.015,EXNAT_3_fMRI_Psychopy2023.1.3,2023.1.3,74.90805051372769,
0,0,0,0,,,,,,,,,,,#D292F3,954.8192038536072,42.3065869808197,None,None,None,428.28343224812124,text_02,67,1,1,1,Reading_Baseline_main_no_click,None,des,,,,,YA01,001,no,577,843,84,125,166,2024-08-26_12h38.24.015,EXNAT_3_fMRI_Psychopy2023.1.3,2023.1.3,74.90805051372769,
0,0,0,0,,,,,,,,,,,#2AB7EF,955.2592439651489,42.74662709236145,None,None,None,499.4564525206463,text_02,68,1,1,1,Reading_Baseline_main_no_click,None,Archivs,,,,,YA01,001,no,577,843,84,125,166,2024-08-26_12h38.24.015,EXNAT_3_fMRI_Psychopy2023.1.3,2023.1.3,74.90805051372769,
0,0,0,0,,,,,,,,,,,#D292F3,955.7655148506165,43.25289797782898,None,None,None,420.0,text_02,69,1,1,1,Reading_Baseline_main_no_click,None,in,,,,,YA01,001,no,577,843,84,125,166,2024-08-26_12h38.24.015,EXNAT_3_fMRI_Psychopy2023.1.3,2023.1.3,74.90805051372769,
0,0,0,0,,,,,,,,,,,#F989A2,956.1922059059143,43.67958903312683,None,None,None,471.1927846444644,text_02,70,1,1,1,Reading_Baseline_main_no_click,None,Vigía,,,,,YA01,001,no,577,843,84,125,166,2024-08-26_12h38.24.015,EXNAT_3_fMRI_Psychopy2023.1.3,2023.1.3,74.90805051372769,
0,0,0,0,,,,,,,,,,,#F989A2,956.6722428798676,44.15962600708008,None,None,None,471.1927846444644,text_02,71,1,1,1,Reading_Baseline_main_no_click,None,sagte,,,,,YA01,001,no,577,843,84,125,166,2024-08-26_12h38.24.015,EXNAT_3_fMRI_Psychopy2023.1.3,2023.1.3,74.90805051372769,
0,0,0,0,,,,,,,,,,,#2AB7EF,957.1520638465881,44.63944697380066,None,None,None,420.0,text_02,72,1,1,1,Reading_Baseline_main_no_click,None,am,,,,,YA01,001,no,577,843,84,125,166,2024-08-26_12h38.24.015,EXNAT_3_fMRI_Psychopy2023.1.3,2023.1.3,74.90805051372769,
0,0,0,0,,,,,,,,,,,#D292F3,957.5787580013275,45.06614112854004,None,None,None,486.5077954151566,text_02,73,1,1,1,Reading_Baseline_main_no_click,None,Montag,,,,,YA01,001,no,577,843,84,125,166,2024-08-26_12h38.24.015,EXNAT_3_fMRI_Psychopy2023.1.3,2023.1.3,74.90805051372769,
0,0,0,0,,,,,,,,,,,#2AB7EF,958.0714747905731,45.558857917785645,None,None,None,420.0,text_02,74,1,1,1,Reading_Baseline_main_no_click,None,im,,,,,YA01,001,no,577,843,84,125,166,2024-08-26_12h38.24.015,EXNAT_3_fMRI_Psychopy2023.1.3,2023.1.3,74.90805051372769,
0,0,0,0,,,,,,,,,,,#2AB7EF,958.4983179569244,45.98570108413696,None,None,None,537.4232029150631,text_02,75,1,1,1,Reading_Baseline_main_no_click,None,kubanischen,,,,,YA01,001,no,577,843,84,125,166,2024-08-26_12h38.24.015,EXNAT_3_fMRI_Psychopy2023.1.3,2023.1.3,74.90805051372769,
0,0,0,0,,,,,,,,,,,#F989A2,959.0450549125671,46.53243803977966,None,None,None,529.4171478114998,text_02,76,1,1,1,Reading_Baseline_main_no_click,None,"Fernsehen,",,,,,YA01,001,no,577,843,84,125,166,2024-08-26_12h38.24.015,EXNAT_3_fMRI_Psychopy2023.1.3,2023.1.3,74.90805051372769,
0,0,0,0,,,,,,,,,,,#88BA3F,959.5774879455566,47.064871072769165,None,None,None,420.0,text_02,77,1,1,1,Reading_Baseline_main_no_click,None,es,,,,,YA01,001,no,577,843,84,125,166,2024-08-26_12h38.24.015,EXNAT_3_fMRI_Psychopy2023.1.3,2023.1.3,74.90805051372769,
0,0,0,0,,,,,,,,,,,#F989A2,960.0041558742523,47.491539001464844,None,None,None,499.4564525206463,text_02,78,1,1,1,Reading_Baseline_main_no_click,None,handele,,,,,YA01,001,no,577,843,84,125,166,2024-08-26_12h38.24.015,EXNAT_3_fMRI_Psychopy2023.1.3,2023.1.3,74.90805051372769,
0,0,0,0,,,,,,,,,,,#D292F3,960.510556936264,47.99794006347656,None,None,None,452.4487263340708,text_02,79,1,1,1,Reading_Baseline_main_no_click,None,sich,,,,,YA01,001,no,577,843,84,125,166,2024-08-26_12h38.24.015,EXNAT_3_fMRI_Psychopy2023.1.3,2023.1.3,74.90805051372769,
0,0,0,0,,,,,,,,,,,#88BA3F,960.9772419929504,48.464625120162964,None,None,None,420.0,text_02,80,1,1,1,Reading_Baseline_main_no_click,None,um,,,,,YA01,001,no,577,843,84,125,166,2024-08-26_12h38.24.015,EXNAT_3_fMRI_Psychopy2023.1.3,2023.1.3,74.90805051372769,
0,0,0,0,,,,,,,,,,,#F989A2,961.4037029743195,48.89108610153198,None,None,None,486.5077954151566,text_02,81,1,1,1,Reading_Baseline_main_no_click,None,bisher,,,,,YA01,001,no,577,843,84,125,166,2024-08-26_12h38.24.015,EXNAT_3_fMRI_Psychopy2023.1.3,2023.1.3,74.90805051372769,
0,0,0,0,,,,,,,,,,,#D292F3,961.8978869915009,49.38527011871338,None,None,None,573.9899209007222,text_02,82,1,1,1,Reading_Baseline_main_no_click,None,unveröffentlichte,,,,,YA01,001,no,577,843,84,125,166,2024-08-26_12h38.24.015,EXNAT_3_fMRI_Psychopy2023.1.3,2023.1.3,74.90805051372769,
0,0,0,0,,,,,,,,,,,#88BA3F,962.4836668968201,49.97105002403259,None,None,None,499.4564525206463,text_02,83,1,1,1,Reading_Baseline_main_no_click,None,Stücke.,,,,,YA01,001,no,577,843,84,125,166,2024-08-26_12h38.24.015,EXNAT_3_fMRI_Psychopy2023.1.3,2023.1.3,74.90805051372769,
0,0,0,0,,,,,,,,,,,#2AB7EF,962.9896728992462,50.47705602645874,None,None,None,428.28343224812124,text_02,84,1,1,1,Reading_Baseline_main_no_click,None,Die,,,,,YA01,001,no,577,843,84,125,166,2024-08-26_12h38.24.015,EXNAT_3_fMRI_Psychopy2023.1.3,2023.1.3,74.90805051372769,
0,0,0,0,,,,,,,,,,,#F989A2,963.4300379753113,50.917421102523804,None,None,None,563.4762168925856,text_02,85,1,1,1,Reading_Baseline_main_no_click,None,Digitalisierung,,,,,YA01,001,no,577,843,84,125,166,2024-08-26_12h38.24.015,EXNAT_3_fMRI_Psychopy2023.1.3,2023.1.3,74.90805051372769,
0,0,0,0,,,,,,,,,,,#88BA3F,964.0027959346771,51.49017906188965,None,None,None,428.28343224812124,text_02,86,1,1,1,Reading_Baseline_main_no_click,None,war,,,,,YA01,001,no,577,843,84,125,166,2024-08-26_12h38.24.015,EXNAT_3_fMRI_Psychopy2023.1.3,2023.1.3,74.90805051372769,
0,0,0,0,,,,,,,,,,,#88BA3F,964.4431200027466,51.930503129959106,None,None,None,510.67308950110623,text_02,87,1,1,1,Reading_Baseline_main_no_click,None,zwischen,,,,,YA01,001,no,577,843,84,125,166,2024-08-26_12h38.24.015,EXNAT_3_fMRI_Psychopy2023.1.3,2023.1.3,74.90805051372769,
0,0,0,0,,,,,,,,,,,#2AB7EF,964.9624428749084,52.44982600212097,None,None,None,428.28343224812124,text_02,88,1,1,1,Reading_Baseline_main_no_click,None,den,,,,,YA01,001,no,577,843,84,125,166,2024-08-26_12h38.24.015,EXNAT_3_fMRI_Psychopy2023.1.3,2023.1.3,74.90805051372769,
0,0,0,0,,,,,,,,,,,#D292F3,965.4027948379517,52.890177965164185,None,None,None,428.28343224812124,text_02,89,1,1,1,Reading_Baseline_main_no_click,None,USA,,,,,YA01,001,no,577,843,84,125,166,2024-08-26_12h38.24.015,EXNAT_3_fMRI_Psychopy2023.1.3,2023.1.3,74.90805051372769,
0,0,0,0,,,,,,,,,,,#88BA3F,965.8419778347015,53.32936096191406,None,None,None,428.28343224812124,text_02,90,1,1,1,Reading_Baseline_main_no_click,None,und,,,,,YA01,001,no,577,843,84,125,166,2024-08-26_12h38.24.015,EXNAT_3_fMRI_Psychopy2023.1.3,2023.1.3,74.90805051372769,
0,0,0,0,,,,,,,,,,,#2AB7EF,966.2819418907166,53.76932501792908,None,None,None,452.4487263340708,text_02,91,1,1,1,Reading_Baseline_main_no_click,None,Kuba,,,,,YA01,001,no,577,843,84,125,166,2024-08-26_12h38.24.015,EXNAT_3_fMRI_Psychopy2023.1.3,2023.1.3,74.90805051372769,
0,0,0,0,,,,,,,,,,,#D292F3,966.7485218048096,54.235904932022095,None,None,None,499.4564525206463,text_02,92,1,1,1,Reading_Baseline_main_no_click,None,bereits,,,,,YA01,001,no,577,843,84,125,166,2024-08-26_12h38.24.015,EXNAT_3_fMRI_Psychopy2023.1.3,2023.1.3,74.90805051372769,
0,0,0,0,,,,,,,,,,,#2AB7EF,967.255227804184,54.742610931396484,None,None,None,452.4487263340708,text_02,93,1,1,1,Reading_Baseline_main_no_click,None,2002,,,,,YA01,001,no,577,843,84,125,166,2024-08-26_12h38.24.015,EXNAT_3_fMRI_Psychopy2023.1.3,2023.1.3,74.90805051372769,
0,0,0,0,,,,,,,,,,,#F989A2,967.7217719554901,55.20915508270264,None,None,None,529.4171478114998,text_02,94,1,1,1,Reading_Baseline_main_no_click,None,vereinbart,,,,,YA01,001,no,577,843,84,125,166,2024-08-26_12h38.24.015,EXNAT_3_fMRI_Psychopy2023.1.3,2023.1.3,74.90805051372769,
0,0,0,0,,,,,,,,,,,#2AB7EF,968.254716873169,55.74210000038147,None,None,None,499.4564525206463,text_02,95,1,1,1,Reading_Baseline_main_no_click,None,worden.,,,,,YA01,001,no,577,843,84,125,166,2024-08-26_12h38.24.015,EXNAT_3_fMRI_Psychopy2023.1.3,2023.1.3,74.90805051372769,
0,0,0,0,,,,,,,,,,,#88BA3F,968.7613668441772,56.24874997138977,None,None,None,486.5077954151566,text_02,96,1,1,1,Reading_Baseline_main_no_click,None,Damals,,,,,YA01,001,no,577,843,84,125,166,2024-08-26_12h38.24.015,EXNAT_3_fMRI_Psychopy2023.1.3,2023.1.3,74.90805051372769,
0,0,0,0,,,,,,,,,,,#2AB7EF,969.2544088363647,56.74179196357727,None,None,None,529.4171478114998,text_02,97,1,1,1,Reading_Baseline_main_no_click,None,berichtete,,,,,YA01,001,no,577,843,84,125,166,2024-08-26_12h38.24.015,EXNAT_3_fMRI_Psychopy2023.1.3,2023.1.3,74.90805051372769,
0,0,0,0,,,,,,,,,,,#F989A2,969.7872848510742,57.27466797828674,None,None,None,428.28343224812124,text_02,98,1,1,1,Reading_Baseline_main_no_click,None,die,,,,,YA01,001,no,577,843,84,125,166,2024-08-26_12h38.24.015,EXNAT_3_fMRI_Psychopy2023.1.3,2023.1.3,74.90805051372769,
0,0,0,0,,,,,,,,,,,#D292F3,970.2276558876038,57.715039014816284,None,None,None,452.4487263340708,text_02,99,1,1,1,Reading_Baseline_main_no_click,None,""New,,,,,YA01,001,no,577,843,84,125,166,2024-08-26_12h38.24.015,EXNAT_3_fMRI_Psychopy2023.1.3,2023.1.3,74.90805051372769,
0,0,0,0,,,,,,,,,,,#88BA3F,970.6942269802094,58.181610107421875,None,None,None,452.4487263340708,text_02,100,1,1,1,Reading_Baseline_main_no_click,None,York,,,,,YA01,001,no,577,843,84,125,166,2024-08-26_12h38.24.015,EXNAT_3_fMRI_Psychopy2023.1.3,2023.1.3,74.90805051372769,
0,0,0,0,,,,,,,,,,,#F989A2,971.1605679988861,58.64795112609863,None,None,None,499.4564525206463,text_02,101,1,1,1,Reading_Baseline_main_no_click,None,"Times"",",,,,,YA01,001,no,577,843,84,125,166,2024-08-26_12h38.24.015,EXNAT_3_fMRI_Psychopy2023.1.3,2023.1.3,74.90805051372769,
0,0,0,0,,,,,,,,,,,#2AB7EF,971.6667838096619,59.15416693687439,None,None,None,471.1927846444644,text_02,102,1,1,1,Reading_Baseline_main_no_click,None,unter,,,,,YA01,001,no,577,843,84,125,166,2024-08-26_12h38.24.015,EXNAT_3_fMRI_Psychopy2023.1.3,2023.1.3,74.90805051372769,
0,0,0,0,,,,,,,,,,,#2AB7EF,972.1464698314667,59.6338529586792,None,None,None,428.28343224812124,text_02,103,1,1,1,Reading_Baseline_main_no_click,None,den,,,,,YA01,001,no,577,843,84,125,166,2024-08-26_12h38.24.015,EXNAT_3_fMRI_Psychopy2023.1.3,2023.1.3,74.90805051372769,
0,0,0,0,,,,,,,,,,,#88BA3F,972.5869889259338,60.07437205314636,None,None,None,529.4171478114998,text_02,104,1,1,1,Reading_Baseline_main_no_click,None,Dokumenten,,,,,YA01,001,no,577,843,84,125,166,2024-08-26_12h38.24.015,EXNAT_3_fMRI_Psychopy2023.1.3,2023.1.3,74.90805051372769,
0,0,0,0,,,,,,,,,,,#D292F3,973.1196248531342,60.60700798034668,None,None,None,510.67308950110623,text_02,105,1,1,1,Reading_Baseline_main_no_click,None,befänden,,,,,YA01,001,no,577,843,84,125,166,2024-08-26_12h38.24.015,EXNAT_3_fMRI_Psychopy2023.1.3,2023.1.3,74.90805051372769,
0,0,0,0,,,,,,,,,,,#F989A2,973.6392970085144,61.12668013572693,None,None,None,452.4487263340708,text_02,106,1,1,1,Reading_Baseline_main_no_click,None,sich,,,,,YA01,001,no,577,843,84,125,166,2024-08-26_12h38.24.015,EXNAT_3_fMRI_Psychopy2023.1.3,2023.1.3,74.90805051372769,
0,0,0,0,,,,,,,,,,,#88BA3F,974.1067118644714,61.59409499168396,None,None,None,486.5077954151566,text_02,107,1,1,1,Reading_Baseline_main_no_click,None,"Texte,",,,,,YA01,001,no,577,843,84,125,166,2024-08-26_12h38.24.015,EXNAT_3_fMRI_Psychopy2023.1.3,2023.1.3,74.90805051372769,
0,0,0,0,,,,,,,,,,,#D292F3,974.5989198684692,62.08630299568176,None,None,None,428.28343224812124,text_02,108,1,1,1,Reading_Baseline_main_no_click,None,die,,,,,YA01,001,no,577,843,84,125,166,2024-08-26_12h38.24.015,EXNAT_3_fMRI_Psychopy2023.1.3,2023.1.3,74.90805051372769,
0,0,0,0,,,,,,,,,,,#D292F3,975.0388150215149,62.52619814872742,None,None,None,428.28343224812124,text_02,109,1,1,1,Reading_Baseline_main_no_click,None,auf,,,,,YA01,001,no,577,843,84,125,166,2024-08-26_12h38.24.015,EXNAT_3_fMRI_Psychopy2023.1.3,2023.1.3,74.90805051372769,
0,0,0,0,,,,,,,,,,,#88BA3F,975.47864985466,62.96603298187256,None,None,None,452.4487263340708,text_02,110,1,1,1,Reading_Baseline_main_no_click,None,lose,,,,,YA01,001,no,577,843,84,125,166,2024-08-26_12h38.24.015,EXNAT_3_fMRI_Psychopy2023.1.3,2023.1.3,74.90805051372769,
0,0,0,0,,,,,,,,,,,#D292F3,975.9454708099365,63.43285393714905,None,None,None,499.4564525206463,text_02,111,1,1,1,Reading_Baseline_main_no_click,None,Blätter,,,,,YA01,001,no,577,843,84,125,166,2024-08-26_12h38.24.015,EXNAT_3_fMRI_Psychopy2023.1.3,2023.1.3,74.90805051372769,
0,0,0,0,,,,,,,,,,,#88BA3F,976.451858997345,63.939242124557495,None,None,None,428.28343224812124,text_02,112,1,1,1,Reading_Baseline_main_no_click,None,und,,,,,YA01,001,no,577,843,84,125,166,2024-08-26_12h38.24.015,EXNAT_3_fMRI_Psychopy2023.1.3,2023.1.3,74.90805051372769,
0,0,0,0,,,,,,,,,,,#88BA3F,976.8921229839325,64.37950611114502,None,None,None,529.4171478114998,text_02,113,1,1,1,Reading_Baseline_main_no_click,None,Buchrücken,,,,,YA01,001,no,577,843,84,125,166,2024-08-26_12h38.24.015,EXNAT_3_fMRI_Psychopy2023.1.3,2023.1.3,74.90805051372769,
0,0,0,0,,,,,,,,,,,#2AB7EF,977.4250538349152,64.91243696212769,None,None,None,529.4171478114998,text_02,114,1,1,1,Reading_Baseline_main_no_click,None,gekritzelt,,,,,YA01,001,no,577,843,84,125,166,2024-08-26_12h38.24.015,EXNAT_3_fMRI_Psychopy2023.1.3,2023.1.3,74.90805051372769,
0,0,0,0,,,,,,,,,,,#F989A2,977.9578847885132,65.44526791572571,None,None,None,486.5077954151566,text_02,115,1,1,1,Reading_Baseline_main_no_click,None,worden,,,,,YA01,001,no,577,843,84,125,166,2024-08-26_12h38.24.015,EXNAT_3_fMRI_Psychopy2023.1.3,2023.1.3,74.90805051372769,
0,0,0,0,,,,,,,,,,,#88BA3F,978.4510519504547,65.93843507766724,None,None,None,486.5077954151566,text_02,116,1,1,1,Reading_Baseline_main_no_click,None,seien.,,,,,YA01,001,no,577,843,84,125,166,2024-08-26_12h38.24.015,EXNAT_3_fMRI_Psychopy2023.1.3,2023.1.3,74.90805051372769,
0,0,0,0,,,,,,,,,,,#2AB7EF,978.9440569877625,66.43144011497498,None,None,None,452.4487263340708,text_02,117,1,1,1,Reading_Baseline_main_no_click,None,Dies,,,,,YA01,001,no,577,843,84,125,166,2024-08-26_12h38.24.015,EXNAT_3_fMRI_Psychopy2023.1.3,2023.1.3,74.90805051372769,
0,0,0,0,,,,,,,,,,,#D292F3,979.4106998443604,66.89808297157288,None,None,None,471.1927846444644,text_02,118,1,1,1,Reading_Baseline_main_no_click,None,seien,,,,,YA01,001,no,577,843,84,125,166,2024-08-26_12h38.24.015,EXNAT_3_fMRI_Psychopy2023.1.3,2023.1.3,74.90805051372769,
0,0,0,0,,,,,,,,,,,#F989A2,979.8903608322144,67.37774395942688,None,None,None,428.28343224812124,text_02,119,1,1,1,Reading_Baseline_main_no_click,None,vor,,,,,YA01,001,no,577,843,84,125,166,2024-08-26_12h38.24.015,EXNAT_3_fMRI_Psychopy2023.1.3,2023.1.3,74.90805051372769,
0,0,0,0,,,,,,,,,,,#2AB7EF,980.3307750225067,67.81815814971924,None,None,None,471.1927846444644,text_02,120,1,1,1,Reading_Baseline_main_no_click,None,allem,,,,,YA01,001,no,577,843,84,125,166,2024-08-26_12h38.24.015,EXNAT_3_fMRI_Psychopy2023.1.3,2023.1.3,74.90805051372769,
0,0,0,0,,,,,,,,,,,#88BA3F,980.8105888366699,68.29797196388245,None,None,None,499.4564525206463,text_02,121,1,1,1,Reading_Baseline_main_no_click,None,"Briefe,",,,,,YA01,001,no,577,843,84,125,166,2024-08-26_12h38.24.015,EXNAT_3_fMRI_Psychopy2023.1.3,2023.1.3,74.90805051372769,
0,0,0,0,,,,,,,,,,,#88BA3F,981.3170268535614,68.80440998077393,None,None,None,510.67308950110623,text_02,122,1,1,1,Reading_Baseline_main_no_click,None,Entwürfe,,,,,YA01,001,no,577,843,84,125,166,2024-08-26_12h38.24.015,EXNAT_3_fMRI_Psychopy2023.1.3,2023.1.3,74.90805051372769,
0,0,0,0,,,,,,,,,,,#2AB7EF,981.8365268707275,69.32390999794006,None,None,None,428.28343224812124,text_02,123,1,1,1,Reading_Baseline_main_no_click,None,und,,,,,YA01,001,no,577,843,84,125,166,2024-08-26_12h38.24.015,EXNAT_3_fMRI_Psychopy2023.1.3,2023.1.3,74.90805051372769,
0,0,0,0,,,,,,,,,,,#D292F3,982.2766900062561,69.76407313346863,None,None,None,557.6808156876817,text_02,124,1,1,1,Reading_Baseline_main_no_click,None,Aufzeichnungen,,,,,YA01,001,no,577,843,84,125,166,2024-08-26_12h38.24.015,EXNAT_3_fMRI_Psychopy2023.1.3,2023.1.3,74.90805051372769,
0,0,0,0,,,,,,,,,,,#2AB7EF,982.8494567871094,70.3368399143219,None,None,None,420.0,text_02,125,1,1,1,Reading_Baseline_main_no_click,None,zu,,,,,YA01,001,no,577,843,84,125,166,2024-08-26_12h38.24.015,EXNAT_3_fMRI_Psychopy2023.1.3,2023.1.3,74.90805051372769,
0,0,0,0,,,,,,,,,,,#F989A2,983.2762408256531,70.7636239528656,None,None,None,529.4171478114998,text_02,126,1,1,1,Reading_Baseline_main_no_click,None,Hemingways,,,,,YA01,001,no,577,843,84,125,166,2024-08-26_12h38.24.015,EXNAT_3_fMRI_Psychopy2023.1.3,2023.1.3,74.90805051372769,
0,0,0,0,,,,,,,,,,,#2AB7EF,983.8101739883423,71.29755711555481,None,None,None,486.5077954151566,text_02,127,1,1,1,Reading_Baseline_main_no_click,None,großen,,,,,YA01,001,no,577,843,84,125,166,2024-08-26_12h38.24.015,EXNAT_3_fMRI_Psychopy2023.1.3,2023.1.3,74.90805051372769,
0,0,0,0,,,,,,,,,,,#D292F3,984.3028919696808,71.79027509689331,None,None,None,510.67308950110623,text_02,128,1,1,1,Reading_Baseline_main_no_click,None,Romanen.,,,,,YA01,001,no,577,843,84,125,166,2024-08-26_12h38.24.015,EXNAT_3_fMRI_Psychopy2023.1.3,2023.1.3,74.90805051372769,
0,0,0,0,,,,,,,,,,,#F989A2,984.8220980167389,72.30948114395142,None,None,None,428.28343224812124,text_02,129,1,1,1,Reading_Baseline_main_no_click,None,Der,,,,,YA01,001,no,577,843,84,125,166,2024-08-26_12h38.24.015,EXNAT_3_fMRI_Psychopy2023.1.3,2023.1.3,74.90805051372769,
0,0,0,0,,,,,,,,,,,#88BA3F,985.2622728347778,72.74965596199036,None,None,None,499.4564525206463,text_02,130,1,1,1,Reading_Baseline_main_no_click,None,Biograf,,,,,YA01,001,no,577,843,84,125,166,2024-08-26_12h38.24.015,EXNAT_3_fMRI_Psychopy2023.1.3,2023.1.3,74.90805051372769,
0,0,0,0,,,,,,,,,,,#2AB7EF,985.7686338424683,73.25601696968079,None,None,None,529.4171478114998,text_02,131,1,1,1,Reading_Baseline_main_no_click,None,Hemingways,,,,,YA01,001,no,577,843,84,125,166,2024-08-26_12h38.24.015,EXNAT_3_fMRI_Psychopy2023.1.3,2023.1.3,74.90805051372769,
0,0,0,0,,,,,,,,,,,#F989A2,986.3016948699951,73.78907799720764,None,None,None,486.5077954151566,text_02,132,1,1,1,Reading_Baseline_main_no_click,None,nannte,,,,,YA01,001,no,577,843,84,125,166,2024-08-26_12h38.24.015,EXNAT_3_fMRI_Psychopy2023.1.3,2023.1.3,74.90805051372769,
0,0,0,0,,,,,,,,,,,#88BA3F,986.7947809696198,74.28216409683228,None,None,None,428.28343224812124,text_02,133,1,1,1,Reading_Baseline_main_no_click,None,den,,,,,YA01,001,no,577,843,84,125,166,2024-08-26_12h38.24.015,EXNAT_3_fMRI_Psychopy2023.1.3,2023.1.3,74.90805051372769,
0,0,0,0,,,,,,,,,,,#2AB7EF,987.2347459793091,74.7221291065216,None,None,None,510.67308950110623,text_02,134,1,1,1,Reading_Baseline_main_no_click,None,gesamten,,,,,YA01,001,no,577,843,84,125,166,2024-08-26_12h38.24.015,EXNAT_3_fMRI_Psychopy2023.1.3,2023.1.3,74.90805051372769,
0,0,0,0,,,,,,,,,,,#F989A2,987.7552030086517,75.24258613586426,None,None,None,510.67308950110623,text_02,135,1,1,1,Reading_Baseline_main_no_click,None,Nachlass,,,,,YA01,001,no,577,843,84,125,166,2024-08-26_12h38.24.015,EXNAT_3_fMRI_Psychopy2023.1.3,2023.1.3,74.90805051372769,
0,0,0,0,,,,,,,,,,,#2AB7EF,988.2742078304291,75.7615909576416,None,None,None,452.4487263340708,text_02,136,1,1,1,Reading_Baseline_main_no_click,None,eine,,,,,YA01,001,no,577,843,84,125,166,2024-08-26_12h38.24.015,EXNAT_3_fMRI_Psychopy2023.1.3,2023.1.3,74.90805051372769,
0,0,0,0,,,,,,,,,,,#F989A2,988.7417929172516,76.22917604446411,None,None,None,583.3328742499809,text_02,137,1,1,1,Reading_Baseline_main_no_click,None,""Computertomografie,,,,,YA01,001,no,577,843,84,125,166,2024-08-26_12h38.24.015,EXNAT_3_fMRI_Psychopy2023.1.3,2023.1.3,74.90805051372769,
0,0,0,0,,,,,,,,,,,#D292F3,989.3271458148956,76.81452894210815,None,None,None,428.28343224812124,text_02,138,1,1,1,Reading_Baseline_main_no_click,None,von,,,,,YA01,001,no,577,843,84,125,166,2024-08-26_12h38.24.015,EXNAT_3_fMRI_Psychopy2023.1.3,2023.1.3,74.90805051372769,
0,0,0,0,,,,,,,,,,,#D292F3,989.7674598693848,77.25484299659729,None,None,None,529.4171478114998,text_02,139,1,1,1,Reading_Baseline_main_no_click,None,Hemingways,,,,,YA01,001,no,577,843,84,125,166,2024-08-26_12h38.24.015,EXNAT_3_fMRI_Psychopy2023.1.3,2023.1.3,74.90805051372769,
0,0,0,0,,,,,,,,,,,#2AB7EF,990.3013060092926,77.78868913650513,None,None,None,510.67308950110623,text_02,140,1,1,1,Reading_Baseline_main_no_click,None,Gehirn"".,,,,,YA01,001,no,577,843,84,125,166,2024-08-26_12h38.24.015,EXNAT_3_fMRI_Psychopy2023.1.3,2023.1.3,74.90805051372769,
0,0,0,0,,,,,,,,,,,#88BA3F,990.8203239440918,78.30770707130432,None,None,None,420.0,text_02,141,1,1,1,Reading_Baseline_main_no_click,None,In,,,,,YA01,001,no,577,843,84,125,166,2024-08-26_12h38.24.015,EXNAT_3_fMRI_Psychopy2023.1.3,2023.1.3,74.90805051372769,
0,0,0,0,,,,,,,,,,,#88BA3F,991.2468938827515,78.73427700996399,None,None,None,452.4487263340708,text_02,142,1,1,1,Reading_Baseline_main_no_click,None,Kuba,,,,,YA01,001,no,577,843,84,125,166,2024-08-26_12h38.24.015,EXNAT_3_fMRI_Psychopy2023.1.3,2023.1.3,74.90805051372769,
0,0,0,0,,,,,,,,,,,#2AB7EF,991.7133347988129,79.20071792602539,None,None,None,499.4564525206463,text_02,143,1,1,1,Reading_Baseline_main_no_click,None,schrieb,,,,,YA01,001,no,577,843,84,125,166,2024-08-26_12h38.24.015,EXNAT_3_fMRI_Psychopy2023.1.3,2023.1.3,74.90805051372769,
0,0,0,0,,,,,,,,,,,#F989A2,992.2198598384857,79.70724296569824,None,None,None,520.5668644962425,text_02,144,1,1,1,Reading_Baseline_main_no_click,None,Hemingway,,,,,YA01,001,no,577,843,84,125,166,2024-08-26_12h38.24.015,EXNAT_3_fMRI_Psychopy2023.1.3,2023.1.3,74.90805051372769,
0,0,0,0,,,,,,,,,,,#D292F3,992.7528169155121,80.24020004272461,None,None,None,471.1927846444644,text_02,145,1,1,1,Reading_Baseline_main_no_click,None,unter,,,,,YA01,001,no,577,843,84,125,166,2024-08-26_12h38.24.015,EXNAT_3_fMRI_Psychopy2023.1.3,2023.1.3,74.90805051372769,
0,0,0,0,,,,,,,,,,,#2AB7EF,993.2326560020447,80.7200391292572,None,None,None,499.4564525206463,text_02,146,1,1,1,Reading_Baseline_main_no_click,None,anderem,,,,,YA01,001,no,577,843,84,125,166,2024-08-26_12h38.24.015,EXNAT_3_fMRI_Psychopy2023.1.3,2023.1.3,74.90805051372769,
0,0,0,0,,,,,,,,,,,#2AB7EF,993.739138841629,81.22652196884155,None,None,None,471.1927846444644,text_02,147,1,1,1,Reading_Baseline_main_no_click,None,seine,,,,,YA01,001,no,577,843,84,125,166,2024-08-26_12h38.24.015,EXNAT_3_fMRI_Psychopy2023.1.3,2023.1.3,74.90805051372769,
0,0,0,0,,,,,,,,,,,#88BA3F,994.2191038131714,81.70648694038391,None,None,None,510.67308950110623,text_02,148,1,1,1,Reading_Baseline_main_no_click,None,berühmte,,,,,YA01,001,no,577,843,84,125,166,2024-08-26_12h38.24.015,EXNAT_3_fMRI_Psychopy2023.1.3,2023.1.3,74.90805051372769,
0,0,0,0,,,,,,,,,,,#F989A2,994.7412838935852,82.22866702079773,None,None,None,499.4564525206463,text_02,149,1,1,1,Reading_Baseline_main_no_click,None,Novelle,,,,,YA01,001,no,577,843,84,125,166,2024-08-26_12h38.24.015,EXNAT_3_fMRI_Psychopy2023.1.3,2023.1.3,74.90805051372769,
0,0,0,0,,,,,,,,,,,#88BA3F,995.2456109523773,82.73299407958984,None,None,None,452.4487263340708,text_02,150,1,1,1,Reading_Baseline_main_no_click,None,""Der,,,,,YA01,001,no,577,843,84,125,166,2024-08-26_12h38.24.015,EXNAT_3_fMRI_Psychopy2023.1.3,2023.1.3,74.90805051372769,
0,0,0,0,,,,,,,,,,,#F989A2,995.711630821228,83.19901394844055,None,None,None,452.4487263340708,text_02,151,1,1,1,Reading_Baseline_main_no_click,None,alte,,,,,YA01,001,no,577,843,84,125,166,2024-08-26_12h38.24.015,EXNAT_3_fMRI_Psychopy2023.1.3,2023.1.3,74.90805051372769,
0,0,0,0,,,,,,,,,,,#88BA3F,996.1783378124237,83.66572093963623,None,None,None,452.4487263340708,text_02,152,1,1,1,Reading_Baseline_main_no_click,None,Mann,,,,,YA01,001,no,577,843,84,125,166,2024-08-26_12h38.24.015,EXNAT_3_fMRI_Psychopy2023.1.3,2023.1.3,74.90805051372769,
0,0,0,0,,,,,,,,,,,#F989A2,996.6446278095245,84.13201093673706,None,None,None,428.28343224812124,text_02,153,1,1,1,Reading_Baseline_main_no_click,None,und,,,,,YA01,001,no,577,843,84,125,166,2024-08-26_12h38.24.015,EXNAT_3_fMRI_Psychopy2023.1.3,2023.1.3,74.90805051372769,
0,0,0,0,,,,,,,,,,,#D292F3,997.0844268798828,84.57181000709534,None,None,None,428.28343224812124,text_02,154,1,1,1,Reading_Baseline_main_no_click,None,das,,,,,YA01,001,no,577,843,84,125,166,2024-08-26_12h38.24.015,EXNAT_3_fMRI_Psychopy2023.1.3,2023.1.3,74.90805051372769,
0,0,0,0,,,,,,,,,,,#2AB7EF,997.5247378349304,85.01212096214294,None,None,None,486.5077954151566,text_02,155,1,1,1,Reading_Baseline_main_no_click,None,Meer"".,,,,,YA01,001,no,577,843,84,125,166,2024-08-26_12h38.24.015,EXNAT_3_fMRI_Psychopy2023.1.3,2023.1.3,74.90805051372769,
0,0,0,0,,,,,,,,,,,#D292F3,998.01744389534,85.50482702255249,None,None,None,428.28343224812124,text_02,156,1,1,1,Reading_Baseline_main_no_click,None,Die,,,,,YA01,001,no,577,843,84,125,166,2024-08-26_12h38.24.015,EXNAT_3_fMRI_Psychopy2023.1.3,2023.1.3,74.90805051372769,
0,0,0,0,,,,,,,,,,,#88BA3F,998.4577188491821,85.94510197639465,None,None,None,499.4564525206463,text_02,157,1,1,1,Reading_Baseline_main_no_click,None,Novelle,,,,,YA01,001,no,577,843,84,125,166,2024-08-26_12h38.24.015,EXNAT_3_fMRI_Psychopy2023.1.3,2023.1.3,74.90805051372769,
0,0,0,0,,,,,,,,,,,#F989A2,998.9642000198364,86.45158314704895,None,None,None,499.4564525206463,text_02,158,1,1,1,Reading_Baseline_main_no_click,None,handelt,,,,,YA01,001,no,577,843,84,125,166,2024-08-26_12h38.24.015,EXNAT_3_fMRI_Psychopy2023.1.3,2023.1.3,74.90805051372769,
0,0,0,0,,,,,,,,,,,#D292F3,999.4703078269958,86.95769095420837,None,None,None,428.28343224812124,text_02,159,1,1,1,Reading_Baseline_main_no_click,None,vom,,,,,YA01,001,no,577,843,84,125,166,2024-08-26_12h38.24.015,EXNAT_3_fMRI_Psychopy2023.1.3,2023.1.3,74.90805051372769,
0,0,0,0,,,,,,,,,,,#2AB7EF,999.9104809761047,87.39786410331726,None,None,None,471.1927846444644,text_02,160,1,1,1,Reading_Baseline_main_no_click,None,Kampf,,,,,YA01,001,no,577,843,84,125,166,2024-08-26_12h38.24.015,EXNAT_3_fMRI_Psychopy2023.1.3,2023.1.3,74.90805051372769,
0,0,0,0,,,,,,,,,,,#D292F3,1000.3901188373566,87.87750196456909,None,None,None,471.1927846444644,text_02,161,1,1,1,Reading_Baseline_main_no_click,None,eines,,,,,YA01,001,no,577,843,84,125,166,2024-08-26_12h38.24.015,EXNAT_3_fMRI_Psychopy2023.1.3,2023.1.3,74.90805051372769,
0,0,0,0,,,,,,,,,,,#88BA3F,1000.8699328899384,88.35731601715088,None,None,None,471.1927846444644,text_02,162,1,1,1,Reading_Baseline_main_no_click,None,alten,,,,,YA01,001,no,577,843,84,125,166,2024-08-26_12h38.24.015,EXNAT_3_fMRI_Psychopy2023.1.3,2023.1.3,74.90805051372769,
0,0,0,0,,,,,,,,,,,#D292F3,1001.3500719070435,88.83745503425598,None,None,None,510.67308950110623,text_02,163,1,1,1,Reading_Baseline_main_no_click,None,Fischers,,,,,YA01,001,no,577,843,84,125,166,2024-08-26_12h38.24.015,EXNAT_3_fMRI_Psychopy2023.1.3,2023.1.3,74.90805051372769,
0,0,0,0,,,,,,,,,,,#2AB7EF,1001.8695719242096,89.35695505142212,None,None,None,428.28343224812124,text_02,164,1,1,1,Reading_Baseline_main_no_click,None,mit,,,,,YA01,001,no,577,843,84,125,166,2024-08-26_12h38.24.015,EXNAT_3_fMRI_Psychopy2023.1.3,2023.1.3,74.90805051372769,
0,0,0,0,,,,,,,,,,,#F989A2,1002.3094618320465,89.79684495925903,None,None,None,471.1927846444644,text_02,165,1,1,1,Reading_Baseline_main_no_click,None,einem,,,,,YA01,001,no,577,843,84,125,166,2024-08-26_12h38.24.015,EXNAT_3_fMRI_Psychopy2023.1.3,2023.1.3,74.90805051372769,
0,0,0,0,,,,,,,,,,,#88BA3F,1002.7896029949188,90.27698612213135,None,None,None,510.67308950110623,text_02,166,1,1,1,Reading_Baseline_main_no_click,None,riesigen,,,,,YA01,001,no,577,843,84,125,166,2024-08-26_12h38.24.015,EXNAT_3_fMRI_Psychopy2023.1.3,2023.1.3,74.90805051372769,
0,0,0,0,,,,,,,,,,,#2AB7EF,1003.3092079162598,90.79659104347229,None,None,None,551.455746026769,text_02,167,1,1,1,Reading_Baseline_main_no_click,None,Schwertfisch.,,,,,YA01,001,no,577,843,84,125,166,2024-08-26_12h38.24.015,EXNAT_3_fMRI_Psychopy2023.1.3,2023.1.3,74.90805051372769,
0,0,0,0,,,,,,,,,,,#88BA3F,1003.8687839508057,91.35616707801819,None,None,None,452.4487263340708,text_02,168,1,1,1,Reading_Baseline_main_no_click,None,Zwei,,,,,YA01,001,no,577,843,84,125,166,2024-08-26_12h38.24.015,EXNAT_3_fMRI_Psychopy2023.1.3,2023.1.3,74.90805051372769,
0,0,0,0,,,,,,,,,,,#D292F3,1004.3353459835052,91.82272911071777,None,None,None,452.4487263340708,text_02,169,1,1,1,Reading_Baseline_main_no_click,None,Tage,,,,,YA01,001,no,577,843,84,125,166,2024-08-26_12h38.24.015,EXNAT_3_fMRI_Psychopy2023.1.3,2023.1.3,74.90805051372769,
0,0,0,0,,,,,,,,,,,#88BA3F,1004.8017389774323,92.28912210464478,None,None,None,428.28343224812124,text_02,170,1,1,1,Reading_Baseline_main_no_click,None,und,,,,,YA01,001,no,577,843,84,125,166,2024-08-26_12h38.24.015,EXNAT_3_fMRI_Psychopy2023.1.3,2023.1.3,74.90805051372769,
0,0,0,0,,,,,,,,,,,#2AB7EF,1005.241602897644,92.72898602485657,None,None,None,452.4487263340708,text_02,171,1,1,1,Reading_Baseline_main_no_click,None,zwei,,,,,YA01,001,no,577,843,84,125,166,2024-08-26_12h38.24.015,EXNAT_3_fMRI_Psychopy2023.1.3,2023.1.3,74.90805051372769,
0,0,0,0,,,,,,,,,,,#88BA3F,1005.7084808349609,93.19586396217346,None,None,None,486.5077954151566,text_02,172,1,1,1,Reading_Baseline_main_no_click,None,Nächte,,,,,YA01,001,no,577,843,84,125,166,2024-08-26_12h38.24.015,EXNAT_3_fMRI_Psychopy2023.1.3,2023.1.3,74.90805051372769,
0,0,0,0,,,,,,,,,,,#F989A2,1006.2014420032501,93.68882513046265,None,None,None,471.1927846444644,text_02,173,1,1,1,Reading_Baseline_main_no_click,None,ringt,,,,,YA01,001,no,577,843,84,125,166,2024-08-26_12h38.24.015,EXNAT_3_fMRI_Psychopy2023.1.3,2023.1.3,74.90805051372769,
0,0,0,0,,,,,,,,,,,#D292F3,1006.6810338497162,94.16841697692871,None,None,None,428.28343224812124,text_02,174,1,1,1,Reading_Baseline_main_no_click,None,der,,,,,YA01,001,no,577,843,84,125,166,2024-08-26_12h38.24.015,EXNAT_3_fMRI_Psychopy2023.1.3,2023.1.3,74.90805051372769,
0,0,0,0,,,,,,,,,,,#F989A2,1007.1217198371887,94.60910296440125,None,None,None,499.4564525206463,text_02,175,1,1,1,Reading_Baseline_main_no_click,None,Fischer,,,,,YA01,001,no,577,843,84,125,166,2024-08-26_12h38.24.015,EXNAT_3_fMRI_Psychopy2023.1.3,2023.1.3,74.90805051372769,
0,0,0,0,,,,,,,,,,,#2AB7EF,1007.6275608539581,95.11494398117065,None,None,None,428.28343224812124,text_02,176,1,1,1,Reading_Baseline_main_no_click,None,mit,,,,,YA01,001,no,577,843,84,125,166,2024-08-26_12h38.24.015,EXNAT_3_fMRI_Psychopy2023.1.3,2023.1.3,74.90805051372769,
0,0,0,0,,,,,,,,,,,#F989A2,1008.0674059391022,95.5547890663147,None,None,None,428.28343224812124,text_02,177,1,1,1,Reading_Baseline_main_no_click,None,dem,,,,,YA01,001,no,577,843,84,125,166,2024-08-26_12h38.24.015,EXNAT_3_fMRI_Psychopy2023.1.3,2023.1.3,74.90805051372769,
0,0,0,0,,,,,,,,,,,#2AB7EF,1008.5076630115509,95.99504613876343,None,None,None,551.455746026769,text_02,178,1,1,1,Reading_Baseline_main_no_click,None,"Schwertfisch,",,,,,YA01,001,no,577,843,84,125,166,2024-08-26_12h38.24.015,EXNAT_3_fMRI_Psychopy2023.1.3,2023.1.3,74.90805051372769,
0,0,0,0,,,,,,,,,,,#88BA3F,1009.0670638084412,96.55444693565369,None,None,None,428.28343224812124,text_02,179,1,1,1,Reading_Baseline_main_no_click,None,bis,,,,,YA01,001,no,577,843,84,125,166,2024-08-26_12h38.24.015,EXNAT_3_fMRI_Psychopy2023.1.3,2023.1.3,74.90805051372769,
0,0,0,0,,,,,,,,,,,#D292F3,1009.5068190097809,96.99420213699341,None,None,None,420.0,text_02,180,1,1,1,Reading_Baseline_main_no_click,None,er,,,,,YA01,001,no,577,843,84,125,166,2024-08-26_12h38.24.015,EXNAT_3_fMRI_Psychopy2023.1.3,2023.1.3,74.90805051372769,
0,0,0,0,,,,,,,,,,,#2AB7EF,1009.9333109855652,97.42069411277771,None,None,None,428.28343224812124,text_02,181,1,1,1,Reading_Baseline_main_no_click,None,ihn,,,,,YA01,001,no,577,843,84,125,166,2024-08-26_12h38.24.015,EXNAT_3_fMRI_Psychopy2023.1.3,2023.1.3,74.90805051372769,
0,0,0,0,,,,,,,,,,,#F989A2,1010.3737959861755,97.86117911338806,None,None,None,537.4232029150631,text_02,182,1,1,1,Reading_Baseline_main_no_click,None,schließlich,,,,,YA01,001,no,577,843,84,125,166,2024-08-26_12h38.24.015,EXNAT_3_fMRI_Psychopy2023.1.3,2023.1.3,74.90805051372769,
0,0,0,0,,,,,,,,,,,#88BA3F,1010.9196579456329,98.40704107284546,None,None,None,420.0,text_02,183,1,1,1,Reading_Baseline_main_no_click,None,am,,,,,YA01,001,no,577,843,84,125,166,2024-08-26_12h38.24.015,EXNAT_3_fMRI_Psychopy2023.1.3,2023.1.3,74.90805051372769,
0,0,0,0,,,,,,,,,,,#2AB7EF,1011.3467040061951,98.83408713340759,None,None,None,499.4564525206463,text_02,184,1,1,1,Reading_Baseline_main_no_click,None,dritten,,,,,YA01,001,no,577,843,84,125,166,2024-08-26_12h38.24.015,EXNAT_3_fMRI_Psychopy2023.1.3,2023.1.3,74.90805051372769,
0,0,0,0,,,,,,,,,,,#F989A2,1011.8525810241699,99.33996415138245,None,None,None,428.28343224812124,text_02,185,1,1,1,Reading_Baseline_main_no_click,None,Tag,,,,,YA01,001,no,577,843,84,125,166,2024-08-26_12h38.24.015,EXNAT_3_fMRI_Psychopy2023.1.3,2023.1.3,74.90805051372769,
0,0,0,0,,,,,,,,,,,#F989A2,1012.2931869029999,99.7805700302124,None,None,None,544.732158582192,text_02,186,1,1,1,Reading_Baseline_main_no_click,None,überwältigen,,,,,YA01,001,no,577,843,84,125,166,2024-08-26_12h38.24.015,EXNAT_3_fMRI_Psychopy2023.1.3,2023.1.3,74.90805051372769,
0,0,0,0,,,,,,,,,,,#2AB7EF,1012.8525898456573,100.33997297286987,None,None,None,471.1927846444644,text_02,187,1,1,1,Reading_Baseline_main_no_click,None,kann.,,,,,YA01,001,no,577,843,84,125,166,2024-08-26_12h38.24.015,EXNAT_3_fMRI_Psychopy2023.1.3,2023.1.3,74.90805051372769,
0,0,0,0,,,,,,,,,,,#88BA3F,1013.3321008682251,100.81948399543762,None,None,None,420.0,text_02,188,1,1,1,Reading_Baseline_main_no_click,None,Da,,,,,YA01,001,no,577,843,84,125,166,2024-08-26_12h38.24.015,EXNAT_3_fMRI_Psychopy2023.1.3,2023.1.3,74.90805051372769,
0,0,0,0,,,,,,,,,,,#D292F3,1013.7586200237274,101.24600315093994,None,None,None,428.28343224812124,text_02,189,1,1,1,Reading_Baseline_main_no_click,None,der,,,,,YA01,001,no,577,843,84,125,166,2024-08-26_12h38.24.015,EXNAT_3_fMRI_Psychopy2023.1.3,2023.1.3,74.90805051372769,
0,0,0,0,,,,,,,,,,,#D292F3,1014.1988608837128,101.6862440109253,None,None,None,471.1927846444644,text_02,190,1,1,1,Reading_Baseline_main_no_click,None,Fisch,,,,,YA01,001,no,577,843,84,125,166,2024-08-26_12h38.24.015,EXNAT_3_fMRI_Psychopy2023.1.3,2023.1.3,74.90805051372769,
0,0,0,0,,,,,,,,,,,#88BA3F,1014.6783258914948,102.16570901870728,None,None,None,420.0,text_02,191,1,1,1,Reading_Baseline_main_no_click,None,zu,,,,,YA01,001,no,577,843,84,125,166,2024-08-26_12h38.24.015,EXNAT_3_fMRI_Psychopy2023.1.3,2023.1.3,74.90805051372769,
0,0,0,0,,,,,,,,,,,#D292F3,1015.105309009552,102.59269213676453,None,None,None,452.4487263340708,text_02,192,1,1,1,Reading_Baseline_main_no_click,None,groß,,,,,YA01,001,no,577,843,84,125,166,2024-08-26_12h38.24.015,EXNAT_3_fMRI_Psychopy2023.1.3,2023.1.3,74.90805051372769,
0,0,0,0,,,,,,,,,,,#D292F3,1015.5713889598846,103.05877208709717,None,None,None,452.4487263340708,text_02,193,1,1,1,Reading_Baseline_main_no_click,None,"ist,",,,,,YA01,001,no,577,843,84,125,166,2024-08-26_12h38.24.015,EXNAT_3_fMRI_Psychopy2023.1.3,2023.1.3,74.90805051372769,
0,0,0,0,,,,,,,,,,,#2AB7EF,1016.036346912384,103.52373003959656,None,None,None,420.0,text_02,194,1,1,1,Reading_Baseline_main_no_click,None,um,,,,,YA01,001,no,577,843,84,125,166,2024-08-26_12h38.24.015,EXNAT_3_fMRI_Psychopy2023.1.3,2023.1.3,74.90805051372769,
0,0,0,0,,,,,,,,,,,#F989A2,1016.4627029895782,103.95008611679077,None,None,None,428.28343224812124,text_02,195,1,1,1,Reading_Baseline_main_no_click,None,ihn,,,,,YA01,001,no,577,843,84,125,166,2024-08-26_12h38.24.015,EXNAT_3_fMRI_Psychopy2023.1.3,2023.1.3,74.90805051372769,
0,0,0,0,,,,,,,,,,,#2AB7EF,1016.902391910553,104.3897750377655,None,None,None,428.28343224812124,text_02,196,1,1,1,Reading_Baseline_main_no_click,None,ins,,,,,YA01,001,no,577,843,84,125,166,2024-08-26_12h38.24.015,EXNAT_3_fMRI_Psychopy2023.1.3,2023.1.3,74.90805051372769,
0,0,0,0,,,,,,,,,,,#88BA3F,1017.3424828052521,104.8298659324646,None,None,None,452.4487263340708,text_02,197,1,1,1,Reading_Baseline_main_no_click,None,Boot,,,,,YA01,001,no,577,843,84,125,166,2024-08-26_12h38.24.015,EXNAT_3_fMRI_Psychopy2023.1.3,2023.1.3,74.90805051372769,
0,0,0,0,,,,,,,,,,,#D292F3,1017.8088219165802,105.29620504379272,None,None,None,420.0,text_02,198,1,1,1,Reading_Baseline_main_no_click,None,zu,,,,,YA01,001,no,577,843,84,125,166,2024-08-26_12h38.24.015,EXNAT_3_fMRI_Psychopy2023.1.3,2023.1.3,74.90805051372769,
0,0,0,0,,,,,,,,,,,#D292F3,1018.2358808517456,105.72326397895813,None,None,None,499.4564525206463,text_02,199,1,1,1,Reading_Baseline_main_no_click,None,"ziehen,",,,,,YA01,001,no,577,843,84,125,166,2024-08-26_12h38.24.015,EXNAT_3_fMRI_Psychopy2023.1.3,2023.1.3,74.90805051372769,
0,0,0,0,,,,,,,,,,,#F989A2,1018.7422788143158,106.22966194152832,None,None,None,486.5077954151566,text_02,200,1,1,1,Reading_Baseline_main_no_click,None,bindet,,,,,YA01,001,no,577,843,84,125,166,2024-08-26_12h38.24.015,EXNAT_3_fMRI_Psychopy2023.1.3,2023.1.3,74.90805051372769,
0,0,0,0,,,,,,,,,,,#2AB7EF,1019.2354888916016,106.72287201881409,None,None,None,420.0,text_02,201,1,1,1,Reading_Baseline_main_no_click,None,er,,,,,YA01,001,no,577,843,84,125,166,2024-08-26_12h38.24.015,EXNAT_3_fMRI_Psychopy2023.1.3,2023.1.3,74.90805051372769,
0,0,0,0,,,,,,,,,,,#88BA3F,1019.6618227958679,107.14920592308044,None,None,None,428.28343224812124,text_02,202,1,1,1,Reading_Baseline_main_no_click,None,ihn,,,,,YA01,001,no,577,843,84,125,166,2024-08-26_12h38.24.015,EXNAT_3_fMRI_Psychopy2023.1.3,2023.1.3,74.90805051372769,
0,0,0,0,,,,,,,,,,,#88BA3F,1020.1015768051147,107.58895993232727,None,None,None,428.28343224812124,text_02,203,1,1,1,Reading_Baseline_main_no_click,None,von,,,,,YA01,001,no,577,843,84,125,166,2024-08-26_12h38.24.015,EXNAT_3_fMRI_Psychopy2023.1.3,2023.1.3,74.90805051372769,
0,0,0,0,,,,,,,,,,,#F989A2,1020.541984796524,108.02936792373657,None,None,None,471.1927846444644,text_02,204,1,1,1,Reading_Baseline_main_no_click,None,außen,,,,,YA01,001,no,577,843,84,125,166,2024-08-26_12h38.24.015,EXNAT_3_fMRI_Psychopy2023.1.3,2023.1.3,74.90805051372769,
0,0,0,0,,,,,,,,,,,#88BA3F,1021.0215139389038,108.50889706611633,None,None,None,428.28343224812124,text_02,205,1,1,1,Reading_Baseline_main_no_click,None,ans,,,,,YA01,001,no,577,843,84,125,166,2024-08-26_12h38.24.015,EXNAT_3_fMRI_Psychopy2023.1.3,2023.1.3,74.90805051372769,
0,0,0,0,,,,,,,,,,,#2AB7EF,1021.4626989364624,108.95008206367493,None,None,None,471.1927846444644,text_02,206,1,1,1,Reading_Baseline_main_no_click,None,Boot.,,,,,YA01,001,no,577,843,84,125,166,2024-08-26_12h38.24.015,EXNAT_3_fMRI_Psychopy2023.1.3,2023.1.3,74.90805051372769,
0,0,0,0,,,,,,,,,,,#F989A2,1021.9423599243164,109.42974305152893,None,None,None,428.28343224812124,text_02,207,1,1,1,Reading_Baseline_main_no_click,None,Das,,,,,YA01,001,no,577,843,84,125,166,2024-08-26_12h38.24.015,EXNAT_3_fMRI_Psychopy2023.1.3,2023.1.3,74.90805051372769,
0,0,0,0,,,,,,,,,,,#2AB7EF,1022.380980014801,109.86836314201355,None,None,None,452.4487263340708,text_02,208,1,1,1,Reading_Baseline_main_no_click,None,Blut,,,,,YA01,001,no,577,843,84,125,166,2024-08-26_12h38.24.015,EXNAT_3_fMRI_Psychopy2023.1.3,2023.1.3,74.90805051372769,
0,0,0,0,,,,,,,,,,,#F989A2,1022.8473989963531,110.33478212356567,None,None,None,428.28343224812124,text_02,209,1,1,1,Reading_Baseline_main_no_click,None,des,,,,,YA01,001,no,577,843,84,125,166,2024-08-26_12h38.24.015,EXNAT_3_fMRI_Psychopy2023.1.3,2023.1.3,74.90805051372769,
0,0,0,0,,,,,,,,,,,#D292F3,1023.2873618602753,110.7747449874878,None,None,None,557.6808156876817,text_02,210,1,1,1,Reading_Baseline_main_no_click,None,Schwertfisches,,,,,YA01,001,no,577,843,84,125,166,2024-08-26_12h38.24.015,EXNAT_3_fMRI_Psychopy2023.1.3,2023.1.3,74.90805051372769,
0,0,0,0,,,,,,,,,,,#F989A2,1023.8604378700256,111.34782099723816,None,None,None,471.1927846444644,text_02,211,1,1,1,Reading_Baseline_main_no_click,None,lockt,,,,,YA01,001,no,577,843,84,125,166,2024-08-26_12h38.24.015,EXNAT_3_fMRI_Psychopy2023.1.3,2023.1.3,74.90805051372769,
0,0,0,0,,,,,,,,,,,#2AB7EF,1024.3399348258972,111.82731795310974,None,None,None,428.28343224812124,text_02,212,1,1,1,Reading_Baseline_main_no_click,None,auf,,,,,YA01,001,no,577,843,84,125,166,2024-08-26_12h38.24.015,EXNAT_3_fMRI_Psychopy2023.1.3,2023.1.3,74.90805051372769,
0,0,0,0,,,,,,,,,,,#88BA3F,1024.7797520160675,112.26713514328003,None,None,None,428.28343224812124,text_02,213,1,1,1,Reading_Baseline_main_no_click,None,der,,,,,YA01,001,no,577,843,84,125,166,2024-08-26_12h38.24.015,EXNAT_3_fMRI_Psychopy2023.1.3,2023.1.3,74.90805051372769,
0,0,0,0,,,,,,,,,,,#D292F3,1025.219937801361,112.70732092857361,None,None,None,520.5668644962425,text_02,214,1,1,1,Reading_Baseline_main_no_click,None,Heimfahrt,,,,,YA01,001,no,577,843,84,125,166,2024-08-26_12h38.24.015,EXNAT_3_fMRI_Psychopy2023.1.3,2023.1.3,74.90805051372769,
0,0,0,0,,,,,,,,,,,#F989A2,1025.7535610198975,113.24094414710999,None,None,None,486.5077954151566,text_02,215,1,1,1,Reading_Baseline_main_no_click,None,jedoch,,,,,YA01,001,no,577,843,84,125,166,2024-08-26_12h38.24.015,EXNAT_3_fMRI_Psychopy2023.1.3,2023.1.3,74.90805051372769,
0,0,0,0,,,,,,,,,,,#88BA3F,1026.2458369731903,113.73322010040283,None,None,None,452.4487263340708,text_02,216,1,1,1,Reading_Baseline_main_no_click,None,Haie,,,,,YA01,001,no,577,843,84,125,166,2024-08-26_12h38.24.015,EXNAT_3_fMRI_Psychopy2023.1.3,2023.1.3,74.90805051372769,
0,0,0,0,,,,,,,,,,,#D292F3,1026.7124598026276,114.19984292984009,None,None,None,428.28343224812124,text_02,217,1,1,1,Reading_Baseline_main_no_click,None,an.,,,,,YA01,001,no,577,843,84,125,166,2024-08-26_12h38.24.015,EXNAT_3_fMRI_Psychopy2023.1.3,2023.1.3,74.90805051372769,
0,0,0,0,,,,,,,,,,,#F989A2,1027.152102947235,114.63948607444763,None,None,None,428.28343224812124,text_02,218,1,1,1,Reading_Baseline_main_no_click,None,Die,,,,,YA01,001,no,577,843,84,125,166,2024-08-26_12h38.24.015,EXNAT_3_fMRI_Psychopy2023.1.3,2023.1.3,74.90805051372769,
0,0,0,0,,,,,,,,,,,#D292F3,1027.5920078754425,115.07939100265503,None,None,None,452.4487263340708,text_02,219,1,1,1,Reading_Baseline_main_no_click,None,Haie,,,,,YA01,001,no,577,843,84,125,166,2024-08-26_12h38.24.015,EXNAT_3_fMRI_Psychopy2023.1.3,2023.1.3,74.90805051372769,
0,0,0,0,,,,,,,,,,,#2AB7EF,1028.0587058067322,115.5460889339447,None,None,None,499.4564525206463,text_02,220,1,1,1,Reading_Baseline_main_no_click,None,fressen,,,,,YA01,001,no,577,843,84,125,166,2024-08-26_12h38.24.015,EXNAT_3_fMRI_Psychopy2023.1.3,2023.1.3,74.90805051372769,
0,0,0,0,,,,,,,,,,,#F989A2,1028.564992904663,116.05237603187561,None,None,None,452.4487263340708,text_02,221,1,1,1,Reading_Baseline_main_no_click,None,nach,,,,,YA01,001,no,577,843,84,125,166,2024-08-26_12h38.24.015,EXNAT_3_fMRI_Psychopy2023.1.3,2023.1.3,74.90805051372769,
0,0,0,0,,,,,,,,,,,#88BA3F,1029.0314519405365,116.51883506774902,None,None,None,428.28343224812124,text_02,222,1,1,1,Reading_Baseline_main_no_click,None,und,,,,,YA01,001,no,577,843,84,125,166,2024-08-26_12h38.24.015,EXNAT_3_fMRI_Psychopy2023.1.3,2023.1.3,74.90805051372769,
0,0,0,0,,,,,,,,,,,#2AB7EF,1029.4715509414673,116.95893406867981,None,None,None,452.4487263340708,text_02,223,1,1,1,Reading_Baseline_main_no_click,None,nach,,,,,YA01,001,no,577,843,84,125,166,2024-08-26_12h38.24.015,EXNAT_3_fMRI_Psychopy2023.1.3,2023.1.3,74.90805051372769,
0,0,0,0,,,,,,,,,,,#88BA3F,1029.9382169246674,117.42560005187988,None,None,None,471.1927846444644,text_02,224,1,1,1,Reading_Baseline_main_no_click,None,Teile,,,,,YA01,001,no,577,843,84,125,166,2024-08-26_12h38.24.015,EXNAT_3_fMRI_Psychopy2023.1.3,2023.1.3,74.90805051372769,
0,0,0,0,,,,,,,,,,,#F989A2,1030.417953968048,117.90533709526062,None,None,None,428.28343224812124,text_02,225,1,1,1,Reading_Baseline_main_no_click,None,des,,,,,YA01,001,no,577,843,84,125,166,2024-08-26_12h38.24.015,EXNAT_3_fMRI_Psychopy2023.1.3,2023.1.3,74.90805051372769,
0,0,0,0,,,,,,,,,,,#88BA3F,1030.8581409454346,118.3455240726471,None,None,None,557.6808156876817,text_02,226,1,1,1,Reading_Baseline_main_no_click,None,"Schwertfischs,",,,,,YA01,001,no,577,843,84,125,166,2024-08-26_12h38.24.015,EXNAT_3_fMRI_Psychopy2023.1.3,2023.1.3,74.90805051372769,
0,0,0,0,,,,,,,,,,,#D292F3,1031.4310369491577,118.91842007637024,None,None,None,486.5077954151566,text_02,227,1,1,1,Reading_Baseline_main_no_click,None,sodass,,,,,YA01,001,no,577,843,84,125,166,2024-08-26_12h38.24.015,EXNAT_3_fMRI_Psychopy2023.1.3,2023.1.3,74.90805051372769,
0,0,0,0,,,,,,,,,,,#88BA3F,1031.9240310192108,119.41141414642334,None,None,None,428.28343224812124,text_02,228,1,1,1,Reading_Baseline_main_no_click,None,dem,,,,,YA01,001,no,577,843,84,125,166,2024-08-26_12h38.24.015,EXNAT_3_fMRI_Psychopy2023.1.3,2023.1.3,74.90805051372769,
0,0,0,0,,,,,,,,,,,#F989A2,1032.3640480041504,119.85143113136292,None,None,None,499.4564525206463,text_02,229,1,1,1,Reading_Baseline_main_no_click,None,Fischer,,,,,YA01,001,no,577,843,84,125,166,2024-08-26_12h38.24.015,EXNAT_3_fMRI_Psychopy2023.1.3,2023.1.3,74.90805051372769,
0,0,0,0,,,,,,,,,,,#2AB7EF,1032.8701329231262,120.35751605033875,None,None,None,428.28343224812124,text_02,230,1,1,1,Reading_Baseline_main_no_click,None,nur,,,,,YA01,001,no,577,843,84,125,166,2024-08-26_12h38.24.015,EXNAT_3_fMRI_Psychopy2023.1.3,2023.1.3,74.90805051372769,
0,0,0,0,,,,,,,,,,,#D292F3,1033.3099219799042,120.7973051071167,None,None,None,428.28343224812124,text_02,231,1,1,1,Reading_Baseline_main_no_click,None,das,,,,,YA01,001,no,577,843,84,125,166,2024-08-26_12h38.24.015,EXNAT_3_fMRI_Psychopy2023.1.3,2023.1.3,74.90805051372769,
0,0,0,0,,,,,,,,,,,#2AB7EF,1033.7502269744873,121.23761010169983,None,None,None,499.4564525206463,text_02,232,1,1,1,Reading_Baseline_main_no_click,None,Skelett,,,,,YA01,001,no,577,843,84,125,166,2024-08-26_12h38.24.015,EXNAT_3_fMRI_Psychopy2023.1.3,2023.1.3,74.90805051372769,
0,0,0,0,,,,,,,,,,,#D292F3,1034.2564668655396,121.74384999275208,None,None,None,499.4564525206463,text_02,233,1,1,1,Reading_Baseline_main_no_click,None,"bleibt,",,,,,YA01,001,no,577,843,84,125,166,2024-08-26_12h38.24.015,EXNAT_3_fMRI_Psychopy2023.1.3,2023.1.3,74.90805051372769,
0,0,0,0,,,,,,,,,,,#88BA3F,1034.7627429962158,122.25012612342834,None,None,None,428.28343224812124,text_02,234,1,1,1,Reading_Baseline_main_no_click,None,als,,,,,YA01,001,no,577,843,84,125,166,2024-08-26_12h38.24.015,EXNAT_3_fMRI_Psychopy2023.1.3,2023.1.3,74.90805051372769,
0,0,0,0,,,,,,,,,,,#88BA3F,1035.2025578022003,122.68994092941284,None,None,None,420.0,text_02,235,1,1,1,Reading_Baseline_main_no_click,None,er,,,,,YA01,001,no,577,843,84,125,166,2024-08-26_12h38.24.015,EXNAT_3_fMRI_Psychopy2023.1.3,2023.1.3,74.90805051372769,
0,0,0,0,,,,,,,,,,,#2AB7EF,1035.629567861557,123.11695098876953,None,None,None,486.5077954151566,text_02,236,1,1,1,Reading_Baseline_main_no_click,None,wieder,,,,,YA01,001,no,577,843,84,125,166,2024-08-26_12h38.24.015,EXNAT_3_fMRI_Psychopy2023.1.3,2023.1.3,74.90805051372769,
0,0,0,0,,,,,,,,,,,#88BA3F,1036.1222109794617,123.6095941066742,None,None,None,420.0,text_02,237,1,1,1,Reading_Baseline_main_no_click,None,in,,,,,YA01,001,no,577,843,84,125,166,2024-08-26_12h38.24.015,EXNAT_3_fMRI_Psychopy2023.1.3,2023.1.3,74.90805051372769,
0,0,0,0,,,,,,,,,,,#2AB7EF,1036.5488998889923,124.03628301620483,None,None,None,428.28343224812124,text_02,238,1,1,1,Reading_Baseline_main_no_click,None,den,,,,,YA01,001,no,577,843,84,125,166,2024-08-26_12h38.24.015,EXNAT_3_fMRI_Psychopy2023.1.3,2023.1.3,74.90805051372769,
0,0,0,0,,,,,,,,,,,#D292F3,1036.988934993744,124.47631812095642,None,None,None,537.4232029150631,text_02,239,1,1,1,Reading_Baseline_main_no_click,None,Heimathafen,,,,,YA01,001,no,577,843,84,125,166,2024-08-26_12h38.24.015,EXNAT_3_fMRI_Psychopy2023.1.3,2023.1.3,74.90805051372769,
0,0,0,0,,,,,,,,,,,#F989A2,1037.5357298851013,125.02311301231384,None,None,None,544.732158582192,text_02,240,1,1,1,Reading_Baseline_main_no_click,None,zurückkehrt.,,,,,YA01,001,no,577,843,84,125,166,2024-08-26_12h38.24.015,EXNAT_3_fMRI_Psychopy2023.1.3,2023.1.3,74.90805051372769,
0,0,0,0,,,,,,,,,,,#D292F3,1038.0949039459229,125.58228707313538,None,None,None,428.28343224812124,text_02,241,1,1,1,Reading_Baseline_main_no_click,None,Die,,,,,YA01,001,no,577,843,84,125,166,2024-08-26_12h38.24.015,EXNAT_3_fMRI_Psychopy2023.1.3,2023.1.3,74.90805051372769,
0,0,0,0,,,,,,,,,,,#88BA3F,1038.5350909233093,126.02247405052185,None,None,None,471.1927846444644,text_02,242,1,1,1,Reading_Baseline_main_no_click,None,Figur,,,,,YA01,001,no,577,843,84,125,166,2024-08-26_12h38.24.015,EXNAT_3_fMRI_Psychopy2023.1.3,2023.1.3,74.90805051372769,
0,0,0,0,,,,,,,,,,,#2AB7EF,1039.0145518779755,126.50193500518799,None,None,None,428.28343224812124,text_02,243,1,1,1,Reading_Baseline_main_no_click,None,des,,,,,YA01,001,no,577,843,84,125,166,2024-08-26_12h38.24.015,EXNAT_3_fMRI_Psychopy2023.1.3,2023.1.3,74.90805051372769,
0,0,0,0,,,,,,,,,,,#F989A2,1039.4551258087158,126.94250893592834,None,None,None,510.67308950110623,text_02,244,1,1,1,Reading_Baseline_main_no_click,None,Fischers,,,,,YA01,001,no,577,843,84,125,166,2024-08-26_12h38.24.015,EXNAT_3_fMRI_Psychopy2023.1.3,2023.1.3,74.90805051372769,
0,0,0,0,,,,,,,,,,,#88BA3F,1039.9743390083313,127.46172213554382,None,None,None,428.28343224812124,text_02,245,1,1,1,Reading_Baseline_main_no_click,None,ist,,,,,YA01,001,no,577,843,84,125,166,2024-08-26_12h38.24.015,EXNAT_3_fMRI_Psychopy2023.1.3,2023.1.3,74.90805051372769,
0,0,0,0,,,,,,,,,,,#2AB7EF,1040.41437292099,127.90175604820251,None,None,None,529.4171478114998,text_02,246,1,1,1,Reading_Baseline_main_no_click,None,vermutlich,,,,,YA01,001,no,577,843,84,125,166,2024-08-26_12h38.24.015,EXNAT_3_fMRI_Psychopy2023.1.3,2023.1.3,74.90805051372769,
0,0,0,0,,,,,,,,,,,#D292F3,1040.9473958015442,128.4347789287567,None,None,None,520.5668644962425,text_02,247,1,1,1,Reading_Baseline_main_no_click,None,angelehnt,,,,,YA01,001,no,577,843,84,125,166,2024-08-26_12h38.24.015,EXNAT_3_fMRI_Psychopy2023.1.3,2023.1.3,74.90805051372769,
0,0,0,0,,,,,,,,,,,#88BA3F,1041.480376958847,128.96776008605957,None,None,None,420.0,text_02,248,1,1,1,Reading_Baseline_main_no_click,None,an,,,,,YA01,001,no,577,843,84,125,166,2024-08-26_12h38.24.015,EXNAT_3_fMRI_Psychopy2023.1.3,2023.1.3,74.90805051372769,
0,0,0,0,,,,,,,,,,,#2AB7EF,1041.9069979190826,129.39438104629517,None,None,None,428.28343224812124,text_02,249,1,1,1,Reading_Baseline_main_no_click,None,den,,,,,YA01,001,no,577,843,84,125,166,2024-08-26_12h38.24.015,EXNAT_3_fMRI_Psychopy2023.1.3,2023.1.3,74.90805051372769,
0,0,0,0,,,,,,,,,,,#88BA3F,1042.3471808433533,129.8345639705658,None,None,None,499.4564525206463,text_02,250,1,1,1,Reading_Baseline_main_no_click,None,Fischer,,,,,YA01,001,no,577,843,84,125,166,2024-08-26_12h38.24.015,EXNAT_3_fMRI_Psychopy2023.1.3,2023.1.3,74.90805051372769,
0,0,0,0,,,,,,,,,,,#D292F3,1042.8537828922272,130.3411660194397,None,None,None,510.67308950110623,text_02,251,1,1,1,Reading_Baseline_main_no_click,None,Gregorio,,,,,YA01,001,no,577,843,84,125,166,2024-08-26_12h38.24.015,EXNAT_3_fMRI_Psychopy2023.1.3,2023.1.3,74.90805051372769,
0,0,0,0,,,,,,,,,,,#F989A2,1043.373703956604,130.86108708381653,None,None,None,510.67308950110623,text_02,252,1,1,1,Reading_Baseline_main_no_click,None,"Fuentes,",,,,,YA01,001,no,577,843,84,125,166,2024-08-26_12h38.24.015,EXNAT_3_fMRI_Psychopy2023.1.3,2023.1.3,74.90805051372769,
0,0,0,0,,,,,,,,,,,#88BA3F,1043.8928499221802,131.3802330493927,None,None,None,428.28343224812124,text_02,253,1,1,1,Reading_Baseline_main_no_click,None,der,,,,,YA01,001,no,577,843,84,125,166,2024-08-26_12h38.24.015,EXNAT_3_fMRI_Psychopy2023.1.3,2023.1.3,74.90805051372769,
0,0,0,0,,,,,,,,,,,#D292F3,1044.332734823227,131.82011795043945,None,None,None,452.4487263340708,text_02,254,1,1,1,Reading_Baseline_main_no_click,None,sich,,,,,YA01,001,no,577,843,84,125,166,2024-08-26_12h38.24.015,EXNAT_3_fMRI_Psychopy2023.1.3,2023.1.3,74.90805051372769,
0,0,0,0,,,,,,,,,,,#2AB7EF,1044.7993369102478,132.28672003746033,None,None,None,428.28343224812124,text_02,255,1,1,1,Reading_Baseline_main_no_click,None,auf,,,,,YA01,001,no,577,843,84,125,166,2024-08-26_12h38.24.015,EXNAT_3_fMRI_Psychopy2023.1.3,2023.1.3,74.90805051372769,
0,0,0,0,,,,,,,,,,,#F989A2,1045.2392208576202,132.72660398483276,None,None,None,452.4487263340708,text_02,256,1,1,1,Reading_Baseline_main_no_click,None,Kuba,,,,,YA01,001,no,577,843,84,125,166,2024-08-26_12h38.24.015,EXNAT_3_fMRI_Psychopy2023.1.3,2023.1.3,74.90805051372769,
0,0,0,0,,,,,,,,,,,#D292F3,1045.7056379318237,133.19302105903625,None,None,None,420.0,text_02,257,1,1,1,Reading_Baseline_main_no_click,None,um,,,,,YA01,001,no,577,843,84,125,166,2024-08-26_12h38.24.015,EXNAT_3_fMRI_Psychopy2023.1.3,2023.1.3,74.90805051372769,
0,0,0,0,,,,,,,,,,,#2AB7EF,1046.1323399543762,133.61972308158875,None,None,None,529.4171478114998,text_02,258,1,1,1,Reading_Baseline_main_no_click,None,Hemingways,,,,,YA01,001,no,577,843,84,125,166,2024-08-26_12h38.24.015,EXNAT_3_fMRI_Psychopy2023.1.3,2023.1.3,74.90805051372769,
0,0,0,0,,,,,,,,,,,#88BA3F,1046.6654648780823,134.1528480052948,None,None,None,452.4487263340708,text_02,259,1,1,1,Reading_Baseline_main_no_click,None,Boot,,,,,YA01,001,no,577,843,84,125,166,2024-08-26_12h38.24.015,EXNAT_3_fMRI_Psychopy2023.1.3,2023.1.3,74.90805051372769,
0,0,0,0,,,,,,,,,,,#D292F3,1047.1321308612823,134.61951398849487,None,None,None,520.5668644962425,text_02,260,1,1,1,Reading_Baseline_main_no_click,None,kümmerte.,,,,,YA01,001,no,577,843,84,125,166,2024-08-26_12h38.24.015,EXNAT_3_fMRI_Psychopy2023.1.3,2023.1.3,74.90805051372769,
0,0,0,0,,,,,,,,,,,#2AB7EF,1047.6655600070953,135.15294313430786,None,None,None,428.28343224812124,text_02,261,1,1,1,Reading_Baseline_main_no_click,None,Für,,,,,YA01,001,no,577,843,84,125,166,2024-08-26_12h38.24.015,EXNAT_3_fMRI_Psychopy2023.1.3,2023.1.3,74.90805051372769,
0,0,0,0,,,,,,,,,,,#F989A2,1048.1047608852386,135.59214401245117,None,None,None,452.4487263340708,text_02,262,1,1,1,Reading_Baseline_main_no_click,None,sein,,,,,YA01,001,no,577,843,84,125,166,2024-08-26_12h38.24.015,EXNAT_3_fMRI_Psychopy2023.1.3,2023.1.3,74.90805051372769,
0,0,0,0,,,,,,,,,,,#F989A2,1048.5721969604492,136.05958008766174,None,None,None,452.4487263340708,text_02,263,1,1,1,Reading_Baseline_main_no_click,None,Werk,,,,,YA01,001,no,577,843,84,125,166,2024-08-26_12h38.24.015,EXNAT_3_fMRI_Psychopy2023.1.3,2023.1.3,74.90805051372769,
0,0,0,0,,,,,,,,,,,#88BA3F,1049.0379238128662,136.52530694007874,None,None,None,471.1927846444644,text_02,264,1,1,1,Reading_Baseline_main_no_click,None,wurde,,,,,YA01,001,no,577,843,84,125,166,2024-08-26_12h38.24.015,EXNAT_3_fMRI_Psychopy2023.1.3,2023.1.3,74.90805051372769,
0,0,0,0,,,,,,,,,,,#2AB7EF,1049.5178408622742,137.0052239894867,None,None,None,520.5668644962425,text_02,265,1,1,1,Reading_Baseline_main_no_click,None,Hemingway,,,,,YA01,001,no,577,843,84,125,166,2024-08-26_12h38.24.015,EXNAT_3_fMRI_Psychopy2023.1.3,2023.1.3,74.90805051372769,
0,0,0,0,,,,,,,,,,,#88BA3F,1050.0507609844208,137.5381441116333,None,None,None,428.28343224812124,text_02,266,1,1,1,Reading_Baseline_main_no_click,None,mit,,,,,YA01,001,no,577,843,84,125,166,2024-08-26_12h38.24.015,EXNAT_3_fMRI_Psychopy2023.1.3,2023.1.3,74.90805051372769,
0,0,0,0,,,,,,,,,,,#2AB7EF,1050.490604877472,137.97798800468445,None,None,None,428.28343224812124,text_02,267,1,1,1,Reading_Baseline_main_no_click,None,dem,,,,,YA01,001,no,577,843,84,125,166,2024-08-26_12h38.24.015,EXNAT_3_fMRI_Psychopy2023.1.3,2023.1.3,74.90805051372769,
0,0,0,0,,,,,,,,,,,#2AB7EF,1050.931501865387,138.4188849925995,None,None,None,583.3328742499809,text_02,268,1,1,1,Reading_Baseline_main_no_click,None,Literaturnobelpreis,,,,,YA01,001,no,577,843,84,125,166,2024-08-26_12h38.24.015,EXNAT_3_fMRI_Psychopy2023.1.3,2023.1.3,74.90805051372769,
0,0,0,0,,,,,,,,,,,#F989A2,1051.5173239707947,139.0047070980072,None,None,None,557.6808156876817,text_02,269,1,1,1,Reading_Baseline_main_no_click,None,ausgezeichnet.,,,,,YA01,001,no,577,843,84,125,166,2024-08-26_12h38.24.015,EXNAT_3_fMRI_Psychopy2023.1.3,2023.1.3,74.90805051372769,
0,0,0,0,,,,,,,,,,,#D292F3,1052.0900189876556,139.57740211486816,None,None,None,428.28343224812124,text_02,270,1,1,1,Reading_Baseline_main_no_click,None,Die,,,,,YA01,001,no,577,843,84,125,166,2024-08-26_12h38.24.015,EXNAT_3_fMRI_Psychopy2023.1.3,2023.1.3,74.90805051372769,
0,0,0,0,,,,,,,,,,,#88BA3F,1052.5311589241028,140.0185420513153,None,None,None,583.3328742499809,text_02,271,1,1,1,Reading_Baseline_main_no_click,None,Nobelpreis-Medaille,,,,,YA01,001,no,577,843,84,125,166,2024-08-26_12h38.24.015,EXNAT_3_fMRI_Psychopy2023.1.3,2023.1.3,74.90805051372769,
0,0,0,0,,,,,,,,,,,#2AB7EF,1053.1168630123138,140.60424613952637,None,None,None,510.67308950110623,text_02,272,1,1,1,Reading_Baseline_main_no_click,None,schenkte,,,,,YA01,001,no,577,843,84,125,166,2024-08-26_12h38.24.015,EXNAT_3_fMRI_Psychopy2023.1.3,2023.1.3,74.90805051372769,
0,0,0,0,,,,,,,,,,,#D292F3,1053.636178970337,141.12356209754944,None,None,None,420.0,text_02,273,1,1,1,Reading_Baseline_main_no_click,None,er,,,,,YA01,001,no,577,843,84,125,166,2024-08-26_12h38.24.015,EXNAT_3_fMRI_Psychopy2023.1.3,2023.1.3,74.90805051372769,
0,0,0,0,,,,,,,,,,,#F989A2,1054.0627388954163,141.55012202262878,None,None,None,428.28343224812124,text_02,274,1,1,1,Reading_Baseline_main_no_click,None,aus,,,,,YA01,001,no,577,843,84,125,166,2024-08-26_12h38.24.015,EXNAT_3_fMRI_Psychopy2023.1.3,2023.1.3,74.90805051372769,
0,0,0,0,,,,,,,,,,,#D292F3,1054.503170967102,141.99055409431458,None,None,None,551.455746026769,text_02,275,1,1,1,Reading_Baseline_main_no_click,None,Verbundenheit,,,,,YA01,001,no,577,843,84,125,166,2024-08-26_12h38.24.015,EXNAT_3_fMRI_Psychopy2023.1.3,2023.1.3,74.90805051372769,
0,0,0,0,,,,,,,,,,,#88BA3F,1055.062894821167,142.55027794837952,None,None,None,420.0,text_02,276,1,1,1,Reading_Baseline_main_no_click,None,zu,,,,,YA01,001,no,577,843,84,125,166,2024-08-26_12h38.24.015,EXNAT_3_fMRI_Psychopy2023.1.3,2023.1.3,74.90805051372769,
0,0,0,0,,,,,,,,,,,#F989A2,1055.4891169071198,142.97650003433228,None,None,None,452.4487263340708,text_02,277,1,1,1,Reading_Baseline_main_no_click,None,Kuba,,,,,YA01,001,no,577,843,84,125,166,2024-08-26_12h38.24.015,EXNAT_3_fMRI_Psychopy2023.1.3,2023.1.3,74.90805051372769,
0,0,0,0,,,,,,,,,,,#88BA3F,1055.9556148052216,143.44299793243408,None,None,None,428.28343224812124,text_02,278,1,1,1,Reading_Baseline_main_no_click,None,der,,,,,YA01,001,no,577,843,84,125,166,2024-08-26_12h38.24.015,EXNAT_3_fMRI_Psychopy2023.1.3,2023.1.3,74.90805051372769,
0,0,0,0,,,,,,,,,,,#2AB7EF,1056.3959438800812,143.8833270072937,None,None,None,568.8974526681416,text_02,279,1,1,1,Reading_Baseline_main_no_click,None,Wallfahrtskirche,,,,,YA01,001,no,577,843,84,125,166,2024-08-26_12h38.24.015,EXNAT_3_fMRI_Psychopy2023.1.3,2023.1.3,74.90805051372769,
0,0,0,0,,,,,,,,,,,#D292F3,1056.9683430194855,144.455726146698,None,None,None,428.28343224812124,text_02,280,1,1,1,Reading_Baseline_main_no_click,None,der,,,,,YA01,001,no,577,843,84,125,166,2024-08-26_12h38.24.015,EXNAT_3_fMRI_Psychopy2023.1.3,2023.1.3,74.90805051372769,
0,0,0,0,,,,,,,,,,,#88BA3F,1057.408439874649,144.89582300186157,None,None,None,544.732158582192,text_02,281,1,1,1,Reading_Baseline_main_no_click,None,barmherzigen,,,,,YA01,001,no,577,843,84,125,166,2024-08-26_12h38.24.015,EXNAT_3_fMRI_Psychopy2023.1.3,2023.1.3,74.90805051372769,
0,0,0,0,,,,,,,,,,,#D292F3,1057.968250989914,145.45563411712646,None,None,None,510.67308950110623,text_02,282,1,1,1,Reading_Baseline_main_no_click,None,Jungfrau,,,,,YA01,001,no,577,843,84,125,166,2024-08-26_12h38.24.015,EXNAT_3_fMRI_Psychopy2023.1.3,2023.1.3,74.90805051372769,
0,0,0,0,,,,,,,,,,,#D292F3,1058.4877610206604,145.97514414787292,None,None,None,428.28343224812124,text_02,283,1,1,1,Reading_Baseline_main_no_click,None,von,,,,,YA01,001,no,577,843,84,125,166,2024-08-26_12h38.24.015,EXNAT_3_fMRI_Psychopy2023.1.3,2023.1.3,74.90805051372769,
0,0,0,0,,,,,,,,,,,#2AB7EF,1058.9282219409943,146.4156050682068,None,None,None,486.5077954151566,text_02,284,1,1,1,Reading_Baseline_main_no_click,None,Cobre.,,,,,YA01,001,no,577,843,84,125,166,2024-08-26_12h38.24.015,EXNAT_3_fMRI_Psychopy2023.1.3,2023.1.3,74.90805051372769,
0,0,0,0,,,,,,,,,,,#F989A2,1059.420804977417,146.90818810462952,None,None,None,428.28343224812124,text_02,285,1,1,1,Reading_Baseline_main_no_click,None,Sie,,,,,YA01,001,no,577,843,84,125,166,2024-08-26_12h38.24.015,EXNAT_3_fMRI_Psychopy2023.1.3,2023.1.3,74.90805051372769,
0,0,0,0,,,,,,,,,,,#D292F3,1059.860610961914,147.3479940891266,None,None,None,428.28343224812124,text_02,286,1,1,1,Reading_Baseline_main_no_click,None,ist,,,,,YA01,001,no,577,843,84,125,166,2024-08-26_12h38.24.015,EXNAT_3_fMRI_Psychopy2023.1.3,2023.1.3,74.90805051372769,
0,0,0,0,,,,,,,,,,,#F989A2,1060.300446987152,147.78783011436462,None,None,None,428.28343224812124,text_02,287,1,1,1,Reading_Baseline_main_no_click,None,die,,,,,YA01,001,no,577,843,84,125,166,2024-08-26_12h38.24.015,EXNAT_3_fMRI_Psychopy2023.1.3,2023.1.3,74.90805051372769,
0,0,0,0,,,,,,,,,,,#88BA3F,1060.7408587932587,148.2282419204712,None,None,None,557.6808156876817,text_02,288,1,1,1,Reading_Baseline_main_no_click,None,Schutzpatronin,,,,,YA01,001,no,577,843,84,125,166,2024-08-26_12h38.24.015,EXNAT_3_fMRI_Psychopy2023.1.3,2023.1.3,74.90805051372769,
0,0,0,0,,,,,,,,,,,#F989A2,1061.3135797977448,148.80096292495728,None,None,None,486.5077954151566,text_02,289,1,1,1,Reading_Baseline_main_no_click,None,Kubas.,,,,,YA01,001,no,577,843,84,125,166,2024-08-26_12h38.24.015,EXNAT_3_fMRI_Psychopy2023.1.3,2023.1.3,74.90805051372769,
0,0,0,0,,,,,,,,,,,#D292F3,1061.8066217899323,149.29400491714478,None,None,None,428.28343224812124,text_02,290,1,1,1,Reading_Baseline_main_no_click,None,Die,,,,,YA01,001,no,577,843,84,125,166,2024-08-26_12h38.24.015,EXNAT_3_fMRI_Psychopy2023.1.3,2023.1.3,74.90805051372769,
0,0,0,0,,,,,,,,,,,#88BA3F,1062.2468328475952,149.73421597480774,None,None,None,510.67308950110623,text_02,291,1,1,1,Reading_Baseline_main_no_click,None,Medaille,,,,,YA01,001,no,577,843,84,125,166,2024-08-26_12h38.24.015,EXNAT_3_fMRI_Psychopy2023.1.3,2023.1.3,74.90805051372769,
0,0,0,0,,,,,,,,,,,#F989A2,1062.766489982605,150.2538731098175,None,None,None,428.28343224812124,text_02,292,1,1,1,Reading_Baseline_main_no_click,None,ist,,,,,YA01,001,no,577,843,84,125,166,2024-08-26_12h38.24.015,EXNAT_3_fMRI_Psychopy2023.1.3,2023.1.3,74.90805051372769,
0,0,0,0,,,,,,,,,,,#D292F3,1063.206162929535,150.69354605674744,None,None,None,452.4487263340708,text_02,293,1,1,1,Reading_Baseline_main_no_click,None,auch,,,,,YA01,001,no,577,843,84,125,166,2024-08-26_12h38.24.015,EXNAT_3_fMRI_Psychopy2023.1.3,2023.1.3,74.90805051372769,
0,0,0,0,,,,,,,,,,,#F989A2,1063.672770023346,151.16015315055847,None,None,None,471.1927846444644,text_02,294,1,1,1,Reading_Baseline_main_no_click,None,heute,,,,,YA01,001,no,577,843,84,125,166,2024-08-26_12h38.24.015,EXNAT_3_fMRI_Psychopy2023.1.3,2023.1.3,74.90805051372769,
0,0,0,0,,,,,,,,,,,#88BA3F,1064.1525218486786,151.6399049758911,None,None,None,452.4487263340708,text_02,295,1,1,1,Reading_Baseline_main_no_click,None,noch,,,,,YA01,001,no,577,843,84,125,166,2024-08-26_12h38.24.015,EXNAT_3_fMRI_Psychopy2023.1.3,2023.1.3,74.90805051372769,
0,0,0,0,,,,,,,,,,,#2AB7EF,1064.6189289093018,152.10631203651428,None,None,None,420.0,text_02,296,1,1,1,Reading_Baseline_main_no_click,None,in,,,,,YA01,001,no,577,843,84,125,166,2024-08-26_12h38.24.015,EXNAT_3_fMRI_Psychopy2023.1.3,2023.1.3,74.90805051372769,
0,0,0,0,,,,,,,,,,,#2AB7EF,1065.0454318523407,152.53281497955322,None,None,None,428.28343224812124,text_02,297,1,1,1,Reading_Baseline_main_no_click,None,der,,,,,YA01,001,no,577,843,84,125,166,2024-08-26_12h38.24.015,EXNAT_3_fMRI_Psychopy2023.1.3,2023.1.3,74.90805051372769,
0,0,0,0,,,,,,,,,,,#D292F3,1065.485426902771,152.97281002998352,None,None,None,486.5077954151566,text_02,298,1,1,1,Reading_Baseline_main_no_click,None,Kirche,,,,,YA01,001,no,577,843,84,125,166,2024-08-26_12h38.24.015,EXNAT_3_fMRI_Psychopy2023.1.3,2023.1.3,74.90805051372769,
0,0,0,0,,,,,,,,,,,#2AB7EF,1065.9784059524536,153.46578907966614,None,None,None,420.0,text_02,299,1,1,1,Reading_Baseline_main_no_click,None,zu,,,,,YA01,001,no,577,843,84,125,166,2024-08-26_12h38.24.015,EXNAT_3_fMRI_Psychopy2023.1.3,2023.1.3,74.90805051372769,
0,0,0,0,,,,,,,,,,,#F989A2,1066.4051649570465,153.89254808425903,None,None,None,486.5077954151566,text_02,300,1,1,1,Reading_Baseline_main_no_click,None,sehen.,,,,,YA01,001,no,577,843,84,125,166,2024-08-26_12h38.24.015,EXNAT_3_fMRI_Psychopy2023.1.3,2023.1.3,74.90805051372769,
0,0,0,0,,,,,,,,,,,,1066.942374944687,154.4297580718994,,,,,text_02,,1,1,1,Reading_Baseline_main_no_click,None,,Q1,3,c,True,YA01,001,no,577,843,84,125,166,2024-08-26_12h38.24.015,EXNAT_3_fMRI_Psychopy2023.1.3,2023.1.3,74.90805051372769,
0,0,0,0,,,,,,,,,,,,1072.708016872406,160.19539999961853,,,,,text_02,,1,1,1,Reading_Baseline_main_no_click,None,,Q2,1,a,True,YA01,001,no,577,843,84,125,166,2024-08-26_12h38.24.015,EXNAT_3_fMRI_Psychopy2023.1.3,2023.1.3,74.90805051372769,
0,0,0,0,,,,,,,,,,,,1076.9340720176697,164.4214551448822,,,,,text_02,,1,1,1,Reading_Baseline_main_no_click,None,,Q3,NA,NA,False,YA01,001,no,577,843,84,125,166,2024-08-26_12h38.24.015,EXNAT_3_fMRI_Psychopy2023.1.3,2023.1.3,74.90805051372769,
0,0,0,0,,,,,,,,,,,,,,,,,,,,,,,,,,,,,,YA01,001,no,577,843,84,125,166,2024-08-26_12h38.24.015,EXNAT_3_fMRI_Psychopy2023.1.3,2023.1.3,74.90805051372769,
1,0,1,0,,,,,,,,,,,#2AB7EF,1095.7572689056396,183.24465203285217,None,None,None,428.28343224812124,pseudo_text_03,1,2,1,2,Reading_pseudotext_no_click,None,Die,,,,,YA01,001,no,577,843,84,125,166,2024-08-26_12h38.24.015,EXNAT_3_fMRI_Psychopy2023.1.3,2023.1.3,74.90805051372769,
1,0,1,0,,,,,,,,,,,#2AB7EF,1096.1973309516907,183.6847140789032,None,None,None,537.4232029150631,pseudo_text_03,2,2,1,2,Reading_pseudotext_no_click,None,wostorinnte,,,,,YA01,001,no,577,843,84,125,166,2024-08-26_12h38.24.015,EXNAT_3_fMRI_Psychopy2023.1.3,2023.1.3,74.90805051372769,
1,0,1,0,,,,,,,,,,,#D292F3,1096.7422850131989,184.22966814041138,None,None,None,471.1927846444644,pseudo_text_03,3,2,1,2,Reading_pseudotext_no_click,None,Stoyt,,,,,YA01,001,no,577,843,84,125,166,2024-08-26_12h38.24.015,EXNAT_3_fMRI_Psychopy2023.1.3,2023.1.3,74.90805051372769,
1,0,1,0,,,,,,,,,,,#D292F3,1097.2222797870636,184.70966291427612,None,None,None,471.1927846444644,pseudo_text_03,4,2,1,2,Reading_pseudotext_no_click,None,Riten,,,,,YA01,001,no,577,843,84,125,166,2024-08-26_12h38.24.015,EXNAT_3_fMRI_Psychopy2023.1.3,2023.1.3,74.90805051372769,
1,0,1,0,,,,,,,,,,,#88BA3F,1097.7013700008392,185.18875312805176,None,None,None,420.0,pseudo_text_03,5,2,1,2,Reading_pseudotext_no_click,None,ob,,,,,YA01,001,no,577,843,84,125,166,2024-08-26_12h38.24.015,EXNAT_3_fMRI_Psychopy2023.1.3,2023.1.3,74.90805051372769,
1,0,1,0,,,,,,,,,,,#88BA3F,1098.1290018558502,185.61638498306274,None,None,None,428.28343224812124,pseudo_text_03,6,2,1,2,Reading_pseudotext_no_click,None,der,,,,,YA01,001,no,577,843,84,125,166,2024-08-26_12h38.24.015,EXNAT_3_fMRI_Psychopy2023.1.3,2023.1.3,74.90805051372769,
1,0,1,0,,,,,,,,,,,#D292F3,1098.567668914795,186.05505204200745,None,None,None,486.5077954151566,pseudo_text_03,7,2,1,2,Reading_pseudotext_no_click,None,Sieber,,,,,YA01,001,no,577,843,84,125,166,2024-08-26_12h38.24.015,EXNAT_3_fMRI_Psychopy2023.1.3,2023.1.3,74.90805051372769,
1,0,1,0,,,,,,,,,,,#2AB7EF,1099.061952829361,186.5493359565735,None,None,None,486.5077954151566,pseudo_text_03,8,2,1,2,Reading_pseudotext_no_click,None,rackte,,,,,YA01,001,no,577,843,84,125,166,2024-08-26_12h38.24.015,EXNAT_3_fMRI_Psychopy2023.1.3,2023.1.3,74.90805051372769,
1,0,1,0,,,,,,,,,,,#F989A2,1099.5549337863922,187.04231691360474,None,None,None,510.67308950110623,pseudo_text_03,9,2,1,2,Reading_pseudotext_no_click,None,kölplich,,,,,YA01,001,no,577,843,84,125,166,2024-08-26_12h38.24.015,EXNAT_3_fMRI_Psychopy2023.1.3,2023.1.3,74.90805051372769,
1,0,1,0,,,,,,,,,,,#F989A2,1100.0743238925934,187.5617070198059,None,None,None,510.67308950110623,pseudo_text_03,10,2,1,2,Reading_pseudotext_no_click,None,Teluchem,,,,,YA01,001,no,577,843,84,125,166,2024-08-26_12h38.24.015,EXNAT_3_fMRI_Psychopy2023.1.3,2023.1.3,74.90805051372769,
1,0,1,0,,,,,,,,,,,#88BA3F,1100.5934388637543,188.0808219909668,None,None,None,428.28343224812124,pseudo_text_03,11,2,1,2,Reading_pseudotext_no_click,None,aus,,,,,YA01,001,no,577,843,84,125,166,2024-08-26_12h38.24.015,EXNAT_3_fMRI_Psychopy2023.1.3,2023.1.3,74.90805051372769,
1,0,1,0,,,,,,,,,,,#F989A2,1101.0332198143005,188.52060294151306,None,None,None,428.28343224812124,pseudo_text_03,12,2,1,2,Reading_pseudotext_no_click,None,der,,,,,YA01,001,no,577,843,84,125,166,2024-08-26_12h38.24.015,EXNAT_3_fMRI_Psychopy2023.1.3,2023.1.3,74.90805051372769,
1,0,1,0,,,,,,,,,,,#88BA3F,1101.4735028743744,188.9608860015869,None,None,None,486.5077954151566,pseudo_text_03,13,2,1,2,Reading_pseudotext_no_click,None,vannen,,,,,YA01,001,no,577,843,84,125,166,2024-08-26_12h38.24.015,EXNAT_3_fMRI_Psychopy2023.1.3,2023.1.3,74.90805051372769,
1,0,1,0,,,,,,,,,,,#D292F3,1101.9665789604187,189.45396208763123,None,None,None,452.4487263340708,pseudo_text_03,14,2,1,2,Reading_pseudotext_no_click,None,Felt,,,,,YA01,001,no,577,843,84,125,166,2024-08-26_12h38.24.015,EXNAT_3_fMRI_Psychopy2023.1.3,2023.1.3,74.90805051372769,
1,0,1,0,,,,,,,,,,,#2AB7EF,1102.4329369068146,189.9203200340271,None,None,None,428.28343224812124,pseudo_text_03,15,2,1,2,Reading_pseudotext_no_click,None,"an,",,,,,YA01,001,no,577,843,84,125,166,2024-08-26_12h38.24.015,EXNAT_3_fMRI_Psychopy2023.1.3,2023.1.3,74.90805051372769,
1,0,1,0,,,,,,,,,,,#2AB7EF,1102.8725368976593,190.35992002487183,None,None,None,420.0,pseudo_text_03,16,2,1,2,Reading_pseudotext_no_click,None,um,,,,,YA01,001,no,577,843,84,125,166,2024-08-26_12h38.24.015,EXNAT_3_fMRI_Psychopy2023.1.3,2023.1.3,74.90805051372769,
1,0,1,0,,,,,,,,,,,#F989A2,1103.299829006195,190.7872121334076,None,None,None,520.5668644962425,pseudo_text_03,17,2,1,2,Reading_pseudotext_no_click,None,geneinlom,,,,,YA01,001,no,577,843,84,125,166,2024-08-26_12h38.24.015,EXNAT_3_fMRI_Psychopy2023.1.3,2023.1.3,74.90805051372769,
1,0,1,0,,,,,,,,,,,#2AB7EF,1103.8323979377747,191.31978106498718,None,None,None,428.28343224812124,pseudo_text_03,18,2,1,2,Reading_pseudotext_no_click,None,das,,,,,YA01,001,no,577,843,84,125,166,2024-08-26_12h38.24.015,EXNAT_3_fMRI_Psychopy2023.1.3,2023.1.3,74.90805051372769,
1,0,1,0,,,,,,,,,,,#F989A2,1104.27294588089,191.76032900810242,None,None,None,510.67308950110623,pseudo_text_03,19,2,1,2,Reading_pseudotext_no_click,None,beränste,,,,,YA01,001,no,577,843,84,125,166,2024-08-26_12h38.24.015,EXNAT_3_fMRI_Psychopy2023.1.3,2023.1.3,74.90805051372769,
1,0,1,0,,,,,,,,,,,#2AB7EF,1104.792828798294,192.2802119255066,None,None,None,568.8974526681416,pseudo_text_03,20,2,1,2,Reading_pseudotext_no_click,None,"Mystelolterfast,",,,,,YA01,001,no,577,843,84,125,166,2024-08-26_12h38.24.015,EXNAT_3_fMRI_Psychopy2023.1.3,2023.1.3,74.90805051372769,
1,0,1,0,,,,,,,,,,,#D292F3,1105.3652329444885,192.85261607170105,None,None,None,428.28343224812124,pseudo_text_03,21,2,1,2,Reading_pseudotext_no_click,None,und,,,,,YA01,001,no,577,843,84,125,166,2024-08-26_12h38.24.015,EXNAT_3_fMRI_Psychopy2023.1.3,2023.1.3,74.90805051372769,
1,0,1,0,,,,,,,,,,,#F989A2,1105.805116891861,193.2925000190735,None,None,None,471.1927846444644,pseudo_text_03,22,2,1,2,Reading_pseudotext_no_click,None,pahit,,,,,YA01,001,no,577,843,84,125,166,2024-08-26_12h38.24.015,EXNAT_3_fMRI_Psychopy2023.1.3,2023.1.3,74.90805051372769,
1,0,1,0,,,,,,,,,,,#88BA3F,1106.2849309444427,193.77231407165527,None,None,None,428.28343224812124,pseudo_text_03,23,2,1,2,Reading_pseudotext_no_click,None,die,,,,,YA01,001,no,577,843,84,125,166,2024-08-26_12h38.24.015,EXNAT_3_fMRI_Psychopy2023.1.3,2023.1.3,74.90805051372769,
1,0,1,0,,,,,,,,,,,#D292F3,1106.7249269485474,194.2123100757599,None,None,None,486.5077954151566,pseudo_text_03,24,2,1,2,Reading_pseudotext_no_click,None,dauche,,,,,YA01,001,no,577,843,84,125,166,2024-08-26_12h38.24.015,EXNAT_3_fMRI_Psychopy2023.1.3,2023.1.3,74.90805051372769,
1,0,1,0,,,,,,,,,,,#88BA3F,1107.218407869339,194.7057909965515,None,None,None,529.4171478114998,pseudo_text_03,25,2,1,2,Reading_pseudotext_no_click,None,Bepflechte,,,,,YA01,001,no,577,843,84,125,166,2024-08-26_12h38.24.015,EXNAT_3_fMRI_Psychopy2023.1.3,2023.1.3,74.90805051372769,
1,0,1,0,,,,,,,,,,,#88BA3F,1107.751247882843,195.23863101005554,None,None,None,428.28343224812124,pseudo_text_03,26,2,1,2,Reading_pseudotext_no_click,None,und,,,,,YA01,001,no,577,843,84,125,166,2024-08-26_12h38.24.015,EXNAT_3_fMRI_Psychopy2023.1.3,2023.1.3,74.90805051372769,
1,0,1,0,,,,,,,,,,,#D292F3,1108.1912670135498,195.67865014076233,None,None,None,486.5077954151566,pseudo_text_03,27,2,1,2,Reading_pseudotext_no_click,None,Argtum,,,,,YA01,001,no,577,843,84,125,166,2024-08-26_12h38.24.015,EXNAT_3_fMRI_Psychopy2023.1.3,2023.1.3,74.90805051372769,
1,0,1,0,,,,,,,,,,,#2AB7EF,1108.6840279102325,196.17141103744507,None,None,None,428.28343224812124,pseudo_text_03,28,2,1,2,Reading_pseudotext_no_click,None,der,,,,,YA01,001,no,577,843,84,125,166,2024-08-26_12h38.24.015,EXNAT_3_fMRI_Psychopy2023.1.3,2023.1.3,74.90805051372769,
1,0,1,0,,,,,,,,,,,#D292F3,1109.124223947525,196.61160707473755,None,None,None,499.4564525206463,pseudo_text_03,29,2,1,2,Reading_pseudotext_no_click,None,"Lediän,",,,,,YA01,001,no,577,843,84,125,166,2024-08-26_12h38.24.015,EXNAT_3_fMRI_Psychopy2023.1.3,2023.1.3,74.90805051372769,
1,0,1,0,,,,,,,,,,,#D292F3,1109.630914926529,197.11829805374146,None,None,None,420.0,pseudo_text_03,30,2,1,2,Reading_pseudotext_no_click,None,zu,,,,,YA01,001,no,577,843,84,125,166,2024-08-26_12h38.24.015,EXNAT_3_fMRI_Psychopy2023.1.3,2023.1.3,74.90805051372769,
1,0,1,0,,,,,,,,,,,#88BA3F,1110.0575158596039,197.5448989868164,None,None,None,499.4564525206463,pseudo_text_03,31,2,1,2,Reading_pseudotext_no_click,None,seieln.,,,,,YA01,001,no,577,843,84,125,166,2024-08-26_12h38.24.015,EXNAT_3_fMRI_Psychopy2023.1.3,2023.1.3,74.90805051372769,
1,0,1,0,,,,,,,,,,,#88BA3F,1110.5633659362793,198.05074906349182,None,None,None,428.28343224812124,pseudo_text_03,32,2,1,2,Reading_pseudotext_no_click,None,Mit,,,,,YA01,001,no,577,843,84,125,166,2024-08-26_12h38.24.015,EXNAT_3_fMRI_Psychopy2023.1.3,2023.1.3,74.90805051372769,
1,0,1,0,,,,,,,,,,,#2AB7EF,1111.0033428668976,198.4907259941101,None,None,None,486.5077954151566,pseudo_text_03,33,2,1,2,Reading_pseudotext_no_click,None,seisen,,,,,YA01,001,no,577,843,84,125,166,2024-08-26_12h38.24.015,EXNAT_3_fMRI_Psychopy2023.1.3,2023.1.3,74.90805051372769,
1,0,1,0,,,,,,,,,,,#F989A2,1111.4968829154968,198.98426604270935,None,None,None,544.732158582192,pseudo_text_03,34,2,1,2,Reading_pseudotext_no_click,None,vergannelten,,,,,YA01,001,no,577,843,84,125,166,2024-08-26_12h38.24.015,EXNAT_3_fMRI_Psychopy2023.1.3,2023.1.3,74.90805051372769,
1,0,1,0,,,,,,,,,,,#F989A2,1112.056958913803,199.54434204101562,None,None,None,499.4564525206463,pseudo_text_03,35,2,1,2,Reading_pseudotext_no_click,None,"Pessen,",,,,,YA01,001,no,577,843,84,125,166,2024-08-26_12h38.24.015,EXNAT_3_fMRI_Psychopy2023.1.3,2023.1.3,74.90805051372769,
1,0,1,0,,,,,,,,,,,#2AB7EF,1112.5628418922424,200.05022501945496,None,None,None,520.5668644962425,pseudo_text_03,36,2,1,2,Reading_pseudotext_no_click,None,botingten,,,,,YA01,001,no,577,843,84,125,166,2024-08-26_12h38.24.015,EXNAT_3_fMRI_Psychopy2023.1.3,2023.1.3,74.90805051372769,
1,0,1,0,,,,,,,,,,,#F989A2,1113.0966618061066,200.5840449333191,None,None,None,499.4564525206463,pseudo_text_03,37,2,1,2,Reading_pseudotext_no_click,None,Künchen,,,,,YA01,001,no,577,843,84,125,166,2024-08-26_12h38.24.015,EXNAT_3_fMRI_Psychopy2023.1.3,2023.1.3,74.90805051372769,
1,0,1,0,,,,,,,,,,,#88BA3F,1113.6023049354553,201.08968806266785,None,None,None,428.28343224812124,pseudo_text_03,38,2,1,2,Reading_pseudotext_no_click,None,und,,,,,YA01,001,no,577,843,84,125,166,2024-08-26_12h38.24.015,EXNAT_3_fMRI_Psychopy2023.1.3,2023.1.3,74.90805051372769,
1,0,1,0,,,,,,,,,,,#2AB7EF,1114.0420668125153,201.52944993972778,None,None,None,428.28343224812124,pseudo_text_03,39,2,1,2,Reading_pseudotext_no_click,None,gat,,,,,YA01,001,no,577,843,84,125,166,2024-08-26_12h38.24.015,EXNAT_3_fMRI_Psychopy2023.1.3,2023.1.3,74.90805051372769,
1,0,1,0,,,,,,,,,,,#88BA3F,1114.4821197986603,201.9695029258728,None,None,None,529.4171478114998,pseudo_text_03,40,2,1,2,Reading_pseudotext_no_click,None,erdirteten,,,,,YA01,001,no,577,843,84,125,166,2024-08-26_12h38.24.015,EXNAT_3_fMRI_Psychopy2023.1.3,2023.1.3,74.90805051372769,
1,0,1,0,,,,,,,,,,,#F989A2,1115.0153830051422,202.50276613235474,None,None,None,537.4232029150631,pseudo_text_03,41,2,1,2,Reading_pseudotext_no_click,None,Stoytmauern,,,,,YA01,001,no,577,843,84,125,166,2024-08-26_12h38.24.015,EXNAT_3_fMRI_Psychopy2023.1.3,2023.1.3,74.90805051372769,
1,0,1,0,,,,,,,,,,,#88BA3F,1115.5621058940887,203.04948902130127,None,None,None,486.5077954151566,pseudo_text_03,42,2,1,2,Reading_pseudotext_no_click,None,zautet,,,,,YA01,001,no,577,843,84,125,166,2024-08-26_12h38.24.015,EXNAT_3_fMRI_Psychopy2023.1.3,2023.1.3,74.90805051372769,
1,0,1,0,,,,,,,,,,,#D292F3,1116.0546770095825,203.54206013679504,None,None,None,428.28343224812124,pseudo_text_03,43,2,1,2,Reading_pseudotext_no_click,None,der,,,,,YA01,001,no,577,843,84,125,166,2024-08-26_12h38.24.015,EXNAT_3_fMRI_Psychopy2023.1.3,2023.1.3,74.90805051372769,
1,0,1,0,,,,,,,,,,,#F989A2,1116.49475979805,203.98214292526245,None,None,None,428.28343224812124,pseudo_text_03,44,2,1,2,Reading_pseudotext_no_click,None,Tut,,,,,YA01,001,no,577,843,84,125,166,2024-08-26_12h38.24.015,EXNAT_3_fMRI_Psychopy2023.1.3,2023.1.3,74.90805051372769,
1,0,1,0,,,,,,,,,,,#D292F3,1116.9345078468323,204.4218909740448,None,None,None,452.4487263340708,pseudo_text_03,45,2,1,2,Reading_pseudotext_no_click,None,eine,,,,,YA01,001,no,577,843,84,125,166,2024-08-26_12h38.24.015,EXNAT_3_fMRI_Psychopy2023.1.3,2023.1.3,74.90805051372769,
1,0,1,0,,,,,,,,,,,#2AB7EF,1117.4012289047241,204.88861203193665,None,None,None,499.4564525206463,pseudo_text_03,46,2,1,2,Reading_pseudotext_no_click,None,galhagt,,,,,YA01,001,no,577,843,84,125,166,2024-08-26_12h38.24.015,EXNAT_3_fMRI_Psychopy2023.1.3,2023.1.3,74.90805051372769,
1,0,1,0,,,,,,,,,,,#2AB7EF,1117.9090960025787,205.39647912979126,None,None,None,537.4232029150631,pseudo_text_03,47,2,1,2,Reading_pseudotext_no_click,None,behaufelste,,,,,YA01,001,no,577,843,84,125,166,2024-08-26_12h38.24.015,EXNAT_3_fMRI_Psychopy2023.1.3,2023.1.3,74.90805051372769,
1,0,1,0,,,,,,,,,,,#D292F3,1118.4554018974304,205.94278502464294,None,None,None,499.4564525206463,pseudo_text_03,48,2,1,2,Reading_pseudotext_no_click,None,Dutesse,,,,,YA01,001,no,577,843,84,125,166,2024-08-26_12h38.24.015,EXNAT_3_fMRI_Psychopy2023.1.3,2023.1.3,74.90805051372769,
1,0,1,0,,,,,,,,,,,#D292F3,1118.96204996109,206.4494330883026,None,None,None,428.28343224812124,pseudo_text_03,49,2,1,2,Reading_pseudotext_no_click,None,für,,,,,YA01,001,no,577,843,84,125,166,2024-08-26_12h38.24.015,EXNAT_3_fMRI_Psychopy2023.1.3,2023.1.3,74.90805051372769,
1,0,1,0,,,,,,,,,,,#88BA3F,1119.4018378257751,206.88922095298767,None,None,None,486.5077954151566,pseudo_text_03,50,2,1,2,Reading_pseudotext_no_click,None,dieses,,,,,YA01,001,no,577,843,84,125,166,2024-08-26_12h38.24.015,EXNAT_3_fMRI_Psychopy2023.1.3,2023.1.3,74.90805051372769,
1,0,1,0,,,,,,,,,,,#F989A2,1119.8953340053558,207.38271713256836,None,None,None,537.4232029150631,pseudo_text_03,51,2,1,2,Reading_pseudotext_no_click,None,larbengrope,,,,,YA01,001,no,577,843,84,125,166,2024-08-26_12h38.24.015,EXNAT_3_fMRI_Psychopy2023.1.3,2023.1.3,74.90805051372769,
1,0,1,0,,,,,,,,,,,#D292F3,1120.4419989585876,207.92938208580017,None,None,None,520.5668644962425,pseudo_text_03,52,2,1,2,Reading_pseudotext_no_click,None,Uneimdis.,,,,,YA01,001,no,577,843,84,125,166,2024-08-26_12h38.24.015,EXNAT_3_fMRI_Psychopy2023.1.3,2023.1.3,74.90805051372769,
1,0,1,0,,,,,,,,,,,#D292F3,1120.97442984581,208.46181297302246,None,None,None,428.28343224812124,pseudo_text_03,53,2,1,2,Reading_pseudotext_no_click,None,Die,,,,,YA01,001,no,577,843,84,125,166,2024-08-26_12h38.24.015,EXNAT_3_fMRI_Psychopy2023.1.3,2023.1.3,74.90805051372769,
1,0,1,0,,,,,,,,,,,#2AB7EF,1121.4149389266968,208.9023220539093,None,None,None,510.67308950110623,pseudo_text_03,54,2,1,2,Reading_pseudotext_no_click,None,Zeluchem,,,,,YA01,001,no,577,843,84,125,166,2024-08-26_12h38.24.015,EXNAT_3_fMRI_Psychopy2023.1.3,2023.1.3,74.90805051372769,
1,0,1,0,,,,,,,,,,,#2AB7EF,1121.9342889785767,209.42167210578918,None,None,None,486.5077954151566,pseudo_text_03,55,2,1,2,Reading_pseudotext_no_click,None,letten,,,,,YA01,001,no,577,843,84,125,166,2024-08-26_12h38.24.015,EXNAT_3_fMRI_Psychopy2023.1.3,2023.1.3,74.90805051372769,
1,0,1,0,,,,,,,,,,,#2AB7EF,1122.4272849559784,209.91466808319092,None,None,None,428.28343224812124,pseudo_text_03,56,2,1,2,Reading_pseudotext_no_click,None,die,,,,,YA01,001,no,577,843,84,125,166,2024-08-26_12h38.24.015,EXNAT_3_fMRI_Psychopy2023.1.3,2023.1.3,74.90805051372769,
1,0,1,0,,,,,,,,,,,#88BA3F,1122.867194890976,210.35457801818848,None,None,None,544.732158582192,pseudo_text_03,57,2,1,2,Reading_pseudotext_no_click,None,"Tädlichkeit,",,,,,YA01,001,no,577,843,84,125,166,2024-08-26_12h38.24.015,EXNAT_3_fMRI_Psychopy2023.1.3,2023.1.3,74.90805051372769,
1,0,1,0,,,,,,,,,,,#F989A2,1123.4267058372498,210.91408896446228,None,None,None,428.28343224812124,pseudo_text_03,58,2,1,2,Reading_pseudotext_no_click,None,die,,,,,YA01,001,no,577,843,84,125,166,2024-08-26_12h38.24.015,EXNAT_3_fMRI_Psychopy2023.1.3,2023.1.3,74.90805051372769,
1,0,1,0,,,,,,,,,,,#F989A2,1123.867057800293,211.3544409275055,None,None,None,551.455746026769,pseudo_text_03,59,2,1,2,Reading_pseudotext_no_click,None,flamitiäsente,,,,,YA01,001,no,577,843,84,125,166,2024-08-26_12h38.24.015,EXNAT_3_fMRI_Psychopy2023.1.3,2023.1.3,74.90805051372769,
